"success","timeout","failed_images","failed_audio","failed_video","trial_type","trial_index","time_elapsed","internal_node_id","view_history","rt","stimulus","response","task","correct_response","category"
"true","false","[]","[]","[]","preload","0","3420","0.0-0.0","","","","","","",""
"","","","","","instructions","1","134482","0.0-1.0","[{""page_index"":0,""viewing_time"":95398},{""page_index"":1,""viewing_time"":12750},{""page_index"":2,""viewing_time"":21013},{""page_index"":3,""viewing_time"":1897}]","131059","","","","",""
"","","","","","image-keyboard-response","2","134690","0.0-2.0-0.0","","null","img_mproj/french/2.jpg","null","stimuli_presentation_1","",""
"","","","","","html-keyboard-response","3","135000","0.0-2.0-1.0","","null","<div style=""font-size:60px;"">+</div>","null","fixation","",""
"","","","","","image-keyboard-response","4","135202","0.0-2.0-2.0","","null","img_mproj/french/2.jpg","null","stimuli_presentation_2","",""
"","","","","","html-keyboard-response","5","140103","0.0-2.0-3.0","","4901","<p> Press S if the two images were the same, Press D if the two images were different. </p>","s","response","s","SNF"
"","","","","","html-button-response","6","144827","0.0-2.0-4.0","","4723","<p>The two words were the same, with same orientation. The correct response was 'S'. Let us try another example. Click next to continue.</p>","0","After_trial_text","",""
"","","","","","image-keyboard-response","7","145037","0.0-2.0-0.1","","null","img_mproj/tools/2.jpg","null","stimuli_presentation_1","",""
"","","","","","html-keyboard-response","8","145345","0.0-2.0-1.1","","null","<div style=""font-size:60px;"">+</div>","null","fixation","",""
"","","","","","image-keyboard-response","9","145553","0.0-2.0-2.1","","null","img_mproj/Mtools/2.jpg","null","stimuli_presentation_2","",""
"","","","","","html-keyboard-response","10","150552","0.0-2.0-3.1","","4998","<p> Press S if the two images were the same, Press D if the two images were different. </p>","s","response","s","SMT"
"","","","","","html-button-response","11","159034","0.0-2.0-4.1","","8482","<p>The two images were the same, but in different orientation. The correct response was 'S'. Let us try one last example. Click next to continue.</p>","0","After_trial_text","",""
"","","","","","image-keyboard-response","12","159236","0.0-2.0-0.2","","null","img_mproj/jap/1.jpg","null","stimuli_presentation_1","",""
"","","","","","html-keyboard-response","13","159552","0.0-2.0-1.2","","null","<div style=""font-size:60px;"">+</div>","null","fixation","",""
"","","","","","image-keyboard-response","14","159762","0.0-2.0-2.2","","null","img_mproj/jap/2.jpg","null","stimuli_presentation_2","",""
"","","","","","html-keyboard-response","15","162856","0.0-2.0-3.2","","3092","<p> Press S if the two images were the same, Press D if the two images were different. </p>","d","response","d","DNT"
"","","","","","html-button-response","16","165998","0.0-2.0-4.2","","3142","<p>The two words/images were different. The correct response was 'D'. Click next to begin the task.</p>","0","After_trial_text","",""
"","","","","","image-keyboard-response","17","166215","0.0-3.0-0.0","","null","img_mproj/Mfaces/1.jpg","null","actual_stimuli_presentation_1","",""
"","","","","","html-keyboard-response","18","166525","0.0-3.0-1.0","","null","<div style=""font-size:60px;"">+</div>","null","fixation","",""
"","","","","","image-keyboard-response","19","166734","0.0-3.0-2.0","","null","img_mproj/Mfaces/13.jpg","null","actual_stimuli_presentation_2","",""
"","","","","","html-keyboard-response","20","168826","0.0-3.0-3.0","","2092","<p> Press S if the two images were the same, Press D if the two images were different. </p>","d","response","d","DMM"
"","","","","","image-keyboard-response","21","169036","0.0-3.0-0.1","","null","img_mproj/Mfaces/5.jpg","null","actual_stimuli_presentation_1","",""
"","","","","","html-keyboard-response","22","169347","0.0-3.0-1.1","","null","<div style=""font-size:60px;"">+</div>","null","fixation","",""
"","","","","","image-keyboard-response","23","169551","0.0-3.0-2.1","","null","img_mproj/Mfaces/1.jpg","null","actual_stimuli_presentation_2","",""
"","","","","","html-keyboard-response","24","171718","0.0-3.0-3.1","","2167","<p> Press S if the two images were the same, Press D if the two images were different. </p>","d","response","d","DMM"
"","","","","","image-keyboard-response","25","171924","0.0-3.0-0.2","","null","img_mproj/false/5.jpg","null","actual_stimuli_presentation_1","",""
"","","","","","html-keyboard-response","26","172231","0.0-3.0-1.2","","null","<div style=""font-size:60px;"">+</div>","null","fixation","",""
"","","","","","image-keyboard-response","27","172446","0.0-3.0-2.2","","null","img_mproj/false/1.jpg","null","actual_stimuli_presentation_2","",""
"","","","","","html-keyboard-response","28","174744","0.0-3.0-3.2","","2297","<p> Press S if the two images were the same, Press D if the two images were different. </p>","d","response","d","DNP"
"","","","","","image-keyboard-response","29","174950","0.0-3.0-0.3","","null","img_mproj/false/3.jpg","null","actual_stimuli_presentation_1","",""
"","","","","","html-keyboard-response","30","175263","0.0-3.0-1.3","","null","<div style=""font-size:60px;"">+</div>","null","fixation","",""
"","","","","","image-keyboard-response","31","175480","0.0-3.0-2.3","","null","img_mproj/false/3.jpg","null","actual_stimuli_presentation_2","",""
"","","","","","html-keyboard-response","32","176446","0.0-3.0-3.3","","965","<p> Press S if the two images were the same, Press D if the two images were different. </p>","s","response","s","SNP"
"","","","","","image-keyboard-response","33","176657","0.0-3.0-0.4","","null","img_mproj/false/10.jpg","null","actual_stimuli_presentation_1","",""
"","","","","","html-keyboard-response","34","176965","0.0-3.0-1.4","","null","<div style=""font-size:60px;"">+</div>","null","fixation","",""
"","","","","","image-keyboard-response","35","177178","0.0-3.0-2.4","","null","img_mproj/false/6.jpg","null","actual_stimuli_presentation_2","",""
"","","","","","html-keyboard-response","36","178742","0.0-3.0-3.4","","1563","<p> Press S if the two images were the same, Press D if the two images were different. </p>","d","response","d","DNP"
"","","","","","image-keyboard-response","37","178945","0.0-3.0-0.5","","null","img_mproj/faces/12.jpg","null","actual_stimuli_presentation_1","",""
"","","","","","html-keyboard-response","38","179256","0.0-3.0-1.5","","null","<div style=""font-size:60px;"">+</div>","null","fixation","",""
"","","","","","image-keyboard-response","39","179458","0.0-3.0-2.5","","null","img_mproj/Mfaces/12.jpg","null","actual_stimuli_presentation_2","",""
"","","","","","html-keyboard-response","40","201480","0.0-3.0-3.5","","22021","<p> Press S if the two images were the same, Press D if the two images were different. </p>","d","response","s","SMM"
"","","","","","image-keyboard-response","41","201695","0.0-3.0-0.6","","null","img_mproj/french/7.jpg","null","actual_stimuli_presentation_1","",""
"","","","","","html-keyboard-response","42","201995","0.0-3.0-1.6","","null","<div style=""font-size:60px;"">+</div>","null","fixation","",""
"","","","","","image-keyboard-response","43","202208","0.0-3.0-2.6","","null","img_mproj/Mfrench/7.jpg","null","actual_stimuli_presentation_2","",""
"","","","","","html-keyboard-response","44","211163","0.0-3.0-3.6","","8956","<p> Press S if the two images were the same, Press D if the two images were different. </p>","s","response","s","SMF"
"","","","","","image-keyboard-response","45","211368","0.0-3.0-0.7","","null","img_mproj/false/12.jpg","null","actual_stimuli_presentation_1","",""
"","","","","","html-keyboard-response","46","211670","0.0-3.0-1.7","","null","<div style=""font-size:60px;"">+</div>","null","fixation","",""
"","","","","","image-keyboard-response","47","211876","0.0-3.0-2.7","","null","img_mproj/Mfalse/12.jpg","null","actual_stimuli_presentation_2","",""
"","","","","","html-keyboard-response","48","216764","0.0-3.0-3.7","","4887","<p> Press S if the two images were the same, Press D if the two images were different. </p>","s","response","s","SMP"
"","","","","","image-keyboard-response","49","216980","0.0-3.0-0.8","","null","img_mproj/faces/4.jpg","null","actual_stimuli_presentation_1","",""
"","","","","","html-keyboard-response","50","217291","0.0-3.0-1.8","","null","<div style=""font-size:60px;"">+</div>","null","fixation","",""
"","","","","","image-keyboard-response","51","217494","0.0-3.0-2.8","","null","img_mproj/Mfaces/4.jpg","null","actual_stimuli_presentation_2","",""
"","","","","","html-keyboard-response","52","221809","0.0-3.0-3.8","","4315","<p> Press S if the two images were the same, Press D if the two images were different. </p>","s","response","s","SMM"
"","","","","","image-keyboard-response","53","222010","0.0-3.0-0.9","","null","img_mproj/Mfalse/10.jpg","null","actual_stimuli_presentation_1","",""
"","","","","","html-keyboard-response","54","222315","0.0-3.0-1.9","","null","<div style=""font-size:60px;"">+</div>","null","fixation","",""
"","","","","","image-keyboard-response","55","222519","0.0-3.0-2.9","","null","img_mproj/Mfalse/6.jpg","null","actual_stimuli_presentation_2","",""
"","","","","","html-keyboard-response","56","223897","0.0-3.0-3.9","","1378","<p> Press S if the two images were the same, Press D if the two images were different. </p>","d","response","d","DMP"
"","","","","","image-keyboard-response","57","224114","0.0-3.0-0.10","","null","img_mproj/false/7.jpg","null","actual_stimuli_presentation_1","",""
"","","","","","html-keyboard-response","58","224426","0.0-3.0-1.10","","null","<div style=""font-size:60px;"">+</div>","null","fixation","",""
"","","","","","image-keyboard-response","59","224635","0.0-3.0-2.10","","null","img_mproj/Mfalse/7.jpg","null","actual_stimuli_presentation_2","",""
"","","","","","html-keyboard-response","60","225177","0.0-3.0-3.10","","542","<p> Press S if the two images were the same, Press D if the two images were different. </p>","d","response","s","SMP"
"","","","","","image-keyboard-response","61","225383","0.0-3.0-0.11","","null","img_mproj/Mtools/6.jpg","null","actual_stimuli_presentation_1","",""
"","","","","","html-keyboard-response","62","225696","0.0-3.0-1.11","","null","<div style=""font-size:60px;"">+</div>","null","fixation","",""
"","","","","","image-keyboard-response","63","225899","0.0-3.0-2.11","","null","img_mproj/Mtools/13.jpg","null","actual_stimuli_presentation_2","",""
"","","","","","html-keyboard-response","64","226521","0.0-3.0-3.11","","622","<p> Press S if the two images were the same, Press D if the two images were different. </p>","d","response","d","DMT"
"","","","","","image-keyboard-response","65","226726","0.0-3.0-0.12","","null","img_mproj/false/12.jpg","null","actual_stimuli_presentation_1","",""
"","","","","","html-keyboard-response","66","227040","0.0-3.0-1.12","","null","<div style=""font-size:60px;"">+</div>","null","fixation","",""
"","","","","","image-keyboard-response","67","227248","0.0-3.0-2.12","","null","img_mproj/false/2.jpg","null","actual_stimuli_presentation_2","",""
"","","","","","html-keyboard-response","68","227745","0.0-3.0-3.12","","496","<p> Press S if the two images were the same, Press D if the two images were different. </p>","d","response","d","DNP"
"","","","","","image-keyboard-response","69","227957","0.0-3.0-0.13","","null","img_mproj/Mfalse/8.jpg","null","actual_stimuli_presentation_1","",""
"","","","","","html-keyboard-response","70","228267","0.0-3.0-1.13","","null","<div style=""font-size:60px;"">+</div>","null","fixation","",""
"","","","","","image-keyboard-response","71","228471","0.0-3.0-2.13","","null","img_mproj/Mfalse/9.jpg","null","actual_stimuli_presentation_2","",""
"","","","","","html-keyboard-response","72","230061","0.0-3.0-3.13","","1590","<p> Press S if the two images were the same, Press D if the two images were different. </p>","d","response","d","DMP"
"","","","","","image-keyboard-response","73","230264","0.0-3.0-0.14","","null","img_mproj/Mfrench/12.jpg","null","actual_stimuli_presentation_1","",""
"","","","","","html-keyboard-response","74","230576","0.0-3.0-1.14","","null","<div style=""font-size:60px;"">+</div>","null","fixation","",""
"","","","","","image-keyboard-response","75","230792","0.0-3.0-2.14","","null","img_mproj/Mfrench/2.jpg","null","actual_stimuli_presentation_2","",""
"","","","","","html-keyboard-response","76","232588","0.0-3.0-3.14","","1796","<p> Press S if the two images were the same, Press D if the two images were different. </p>","d","response","d","DMF"
"","","","","","image-keyboard-response","77","232796","0.0-3.0-0.15","","null","img_mproj/faces/13.jpg","null","actual_stimuli_presentation_1","",""
"","","","","","html-keyboard-response","78","233107","0.0-3.0-1.15","","null","<div style=""font-size:60px;"">+</div>","null","fixation","",""
"","","","","","image-keyboard-response","79","233308","0.0-3.0-2.15","","null","img_mproj/faces/3.jpg","null","actual_stimuli_presentation_2","",""
"","","","","","html-keyboard-response","80","234127","0.0-3.0-3.15","","819","<p> Press S if the two images were the same, Press D if the two images were different. </p>","d","response","d","DNM"
"","","","","","image-keyboard-response","81","234336","0.0-3.0-0.16","","null","img_mproj/jap/10.jpg","null","actual_stimuli_presentation_1","",""
"","","","","","html-keyboard-response","82","234648","0.0-3.0-1.16","","null","<div style=""font-size:60px;"">+</div>","null","fixation","",""
"","","","","","image-keyboard-response","83","234865","0.0-3.0-2.16","","null","img_mproj/jap/10.jpg","null","actual_stimuli_presentation_2","",""
"","","","","","html-keyboard-response","84","235788","0.0-3.0-3.16","","922","<p> Press S if the two images were the same, Press D if the two images were different. </p>","s","response","s","SNJ"
"","","","","","image-keyboard-response","85","236002","0.0-3.0-0.17","","null","img_mproj/french/3.jpg","null","actual_stimuli_presentation_1","",""
"","","","","","html-keyboard-response","86","236318","0.0-3.0-1.17","","null","<div style=""font-size:60px;"">+</div>","null","fixation","",""
"","","","","","image-keyboard-response","87","236524","0.0-3.0-2.17","","null","img_mproj/Mfrench/3.jpg","null","actual_stimuli_presentation_2","",""
"","","","","","html-keyboard-response","88","237318","0.0-3.0-3.17","","794","<p> Press S if the two images were the same, Press D if the two images were different. </p>","d","response","s","SMF"
"","","","","","image-keyboard-response","89","237520","0.0-3.0-0.18","","null","img_mproj/tools/6.jpg","null","actual_stimuli_presentation_1","",""
"","","","","","html-keyboard-response","90","237833","0.0-3.0-1.18","","null","<div style=""font-size:60px;"">+</div>","null","fixation","",""
"","","","","","image-keyboard-response","91","238036","0.0-3.0-2.18","","null","img_mproj/Mtools/6.jpg","null","actual_stimuli_presentation_2","",""
"","","","","","html-keyboard-response","92","238999","0.0-3.0-3.18","","962","<p> Press S if the two images were the same, Press D if the two images were different. </p>","s","response","s","SMT"
"","","","","","image-keyboard-response","93","239201","0.0-3.0-0.19","","null","img_mproj/false/1.jpg","null","actual_stimuli_presentation_1","",""
"","","","","","html-keyboard-response","94","239512","0.0-3.0-1.19","","null","<div style=""font-size:60px;"">+</div>","null","fixation","",""
"","","","","","image-keyboard-response","95","239720","0.0-3.0-2.19","","null","img_mproj/Mfalse/1.jpg","null","actual_stimuli_presentation_2","",""
"","","","","","html-keyboard-response","96","240778","0.0-3.0-3.19","","1057","<p> Press S if the two images were the same, Press D if the two images were different. </p>","s","response","s","SMP"
"","","","","","image-keyboard-response","97","240982","0.0-3.0-0.20","","null","img_mproj/tools/12.jpg","null","actual_stimuli_presentation_1","",""
"","","","","","html-keyboard-response","98","241297","0.0-3.0-1.20","","null","<div style=""font-size:60px;"">+</div>","null","fixation","",""
"","","","","","image-keyboard-response","99","241500","0.0-3.0-2.20","","null","img_mproj/tools/12.jpg","null","actual_stimuli_presentation_2","",""
"","","","","","html-keyboard-response","100","241998","0.0-3.0-3.20","","498","<p> Press S if the two images were the same, Press D if the two images were different. </p>","s","response","s","SNT"
"","","","","","image-keyboard-response","101","242212","0.0-3.0-0.21","","null","img_mproj/Mtools/1.jpg","null","actual_stimuli_presentation_1","",""
"","","","","","html-keyboard-response","102","242528","0.0-3.0-1.21","","null","<div style=""font-size:60px;"">+</div>","null","fixation","",""
"","","","","","image-keyboard-response","103","242731","0.0-3.0-2.21","","null","img_mproj/Mtools/13.jpg","null","actual_stimuli_presentation_2","",""
"","","","","","html-keyboard-response","104","243433","0.0-3.0-3.21","","701","<p> Press S if the two images were the same, Press D if the two images were different. </p>","d","response","d","DMT"
"","","","","","image-keyboard-response","105","243646","0.0-3.0-0.22","","null","img_mproj/jap/8.jpg","null","actual_stimuli_presentation_1","",""
"","","","","","html-keyboard-response","106","243955","0.0-3.0-1.22","","null","<div style=""font-size:60px;"">+</div>","null","fixation","",""
"","","","","","image-keyboard-response","107","244157","0.0-3.0-2.22","","null","img_mproj/jap/8.jpg","null","actual_stimuli_presentation_2","",""
"","","","","","html-keyboard-response","108","244801","0.0-3.0-3.22","","643","<p> Press S if the two images were the same, Press D if the two images were different. </p>","s","response","s","SNJ"
"","","","","","image-keyboard-response","109","245010","0.0-3.0-0.23","","null","img_mproj/Mfaces/14.jpg","null","actual_stimuli_presentation_1","",""
"","","","","","html-keyboard-response","110","245323","0.0-3.0-1.23","","null","<div style=""font-size:60px;"">+</div>","null","fixation","",""
"","","","","","image-keyboard-response","111","245526","0.0-3.0-2.23","","null","img_mproj/Mfaces/12.jpg","null","actual_stimuli_presentation_2","",""
"","","","","","html-keyboard-response","112","246345","0.0-3.0-3.23","","818","<p> Press S if the two images were the same, Press D if the two images were different. </p>","d","response","d","DMM"
"","","","","","image-keyboard-response","113","246547","0.0-3.0-0.24","","null","img_mproj/french/8.jpg","null","actual_stimuli_presentation_1","",""
"","","","","","html-keyboard-response","114","246859","0.0-3.0-1.24","","null","<div style=""font-size:60px;"">+</div>","null","fixation","",""
"","","","","","image-keyboard-response","115","247061","0.0-3.0-2.24","","null","img_mproj/french/8.jpg","null","actual_stimuli_presentation_2","",""
"","","","","","html-keyboard-response","116","247730","0.0-3.0-3.24","","668","<p> Press S if the two images were the same, Press D if the two images were different. </p>","s","response","s","SNF"
"","","","","","image-keyboard-response","117","247944","0.0-3.0-0.25","","null","img_mproj/Mfalse/4.jpg","null","actual_stimuli_presentation_1","",""
"","","","","","html-keyboard-response","118","248245","0.0-3.0-1.25","","null","<div style=""font-size:60px;"">+</div>","null","fixation","",""
"","","","","","image-keyboard-response","119","248463","0.0-3.0-2.25","","null","img_mproj/Mfalse/1.jpg","null","actual_stimuli_presentation_2","",""
"","","","","","html-keyboard-response","120","249014","0.0-3.0-3.25","","550","<p> Press S if the two images were the same, Press D if the two images were different. </p>","d","response","d","DMP"
"","","","","","image-keyboard-response","121","249227","0.0-3.0-0.26","","null","img_mproj/false/13.jpg","null","actual_stimuli_presentation_1","",""
"","","","","","html-keyboard-response","122","249538","0.0-3.0-1.26","","null","<div style=""font-size:60px;"">+</div>","null","fixation","",""
"","","","","","image-keyboard-response","123","249750","0.0-3.0-2.26","","null","img_mproj/Mfalse/13.jpg","null","actual_stimuli_presentation_2","",""
"","","","","","html-keyboard-response","124","250329","0.0-3.0-3.26","","579","<p> Press S if the two images were the same, Press D if the two images were different. </p>","d","response","s","SMP"
"","","","","","image-keyboard-response","125","250541","0.0-3.0-0.27","","null","img_mproj/french/5.jpg","null","actual_stimuli_presentation_1","",""
"","","","","","html-keyboard-response","126","250852","0.0-3.0-1.27","","null","<div style=""font-size:60px;"">+</div>","null","fixation","",""
"","","","","","image-keyboard-response","127","251058","0.0-3.0-2.27","","null","img_mproj/french/5.jpg","null","actual_stimuli_presentation_2","",""
"","","","","","html-keyboard-response","128","252253","0.0-3.0-3.27","","1195","<p> Press S if the two images were the same, Press D if the two images were different. </p>","s","response","s","SNF"
"","","","","","image-keyboard-response","129","252467","0.0-3.0-0.28","","null","img_mproj/tools/10.jpg","null","actual_stimuli_presentation_1","",""
"","","","","","html-keyboard-response","130","252779","0.0-3.0-1.28","","null","<div style=""font-size:60px;"">+</div>","null","fixation","",""
"","","","","","image-keyboard-response","131","252994","0.0-3.0-2.28","","null","img_mproj/Mtools/10.jpg","null","actual_stimuli_presentation_2","",""
"","","","","","html-keyboard-response","132","255941","0.0-3.0-3.28","","2946","<p> Press S if the two images were the same, Press D if the two images were different. </p>","s","response","s","SMT"
"","","","","","image-keyboard-response","133","256153","0.0-3.0-0.29","","null","img_mproj/french/10.jpg","null","actual_stimuli_presentation_1","",""
"","","","","","html-keyboard-response","134","256465","0.0-3.0-1.29","","null","<div style=""font-size:60px;"">+</div>","null","fixation","",""
"","","","","","image-keyboard-response","135","256678","0.0-3.0-2.29","","null","img_mproj/Mfrench/10.jpg","null","actual_stimuli_presentation_2","",""
"","","","","","html-keyboard-response","136","257589","0.0-3.0-3.29","","911","<p> Press S if the two images were the same, Press D if the two images were different. </p>","s","response","s","SMF"
"","","","","","image-keyboard-response","137","257801","0.0-3.0-0.30","","null","img_mproj/faces/14.jpg","null","actual_stimuli_presentation_1","",""
"","","","","","html-keyboard-response","138","258112","0.0-3.0-1.30","","null","<div style=""font-size:60px;"">+</div>","null","fixation","",""
"","","","","","image-keyboard-response","139","258319","0.0-3.0-2.30","","null","img_mproj/faces/14.jpg","null","actual_stimuli_presentation_2","",""
"","","","","","html-keyboard-response","140","259594","0.0-3.0-3.30","","1275","<p> Press S if the two images were the same, Press D if the two images were different. </p>","s","response","s","SNM"
"","","","","","image-keyboard-response","141","259802","0.0-3.0-0.31","","null","img_mproj/Mjap/9.jpg","null","actual_stimuli_presentation_1","",""
"","","","","","html-keyboard-response","142","260114","0.0-3.0-1.31","","null","<div style=""font-size:60px;"">+</div>","null","fixation","",""
"","","","","","image-keyboard-response","143","260316","0.0-3.0-2.31","","null","img_mproj/Mjap/4.jpg","null","actual_stimuli_presentation_2","",""
"","","","","","html-keyboard-response","144","261230","0.0-3.0-3.31","","913","<p> Press S if the two images were the same, Press D if the two images were different. </p>","d","response","d","DMJ"
"","","","","","image-keyboard-response","145","261442","0.0-3.0-0.32","","null","img_mproj/french/13.jpg","null","actual_stimuli_presentation_1","",""
"","","","","","html-keyboard-response","146","261756","0.0-3.0-1.32","","null","<div style=""font-size:60px;"">+</div>","null","fixation","",""
"","","","","","image-keyboard-response","147","261961","0.0-3.0-2.32","","null","img_mproj/french/3.jpg","null","actual_stimuli_presentation_2","",""
"","","","","","html-keyboard-response","148","262911","0.0-3.0-3.32","","950","<p> Press S if the two images were the same, Press D if the two images were different. </p>","d","response","d","DNF"
"","","","","","image-keyboard-response","149","263127","0.0-3.0-0.33","","null","img_mproj/faces/1.jpg","null","actual_stimuli_presentation_1","",""
"","","","","","html-keyboard-response","150","263439","0.0-3.0-1.33","","null","<div style=""font-size:60px;"">+</div>","null","fixation","",""
"","","","","","image-keyboard-response","151","263644","0.0-3.0-2.33","","null","img_mproj/faces/1.jpg","null","actual_stimuli_presentation_2","",""
"","","","","","html-keyboard-response","152","264251","0.0-3.0-3.33","","607","<p> Press S if the two images were the same, Press D if the two images were different. </p>","s","response","s","SNM"
"","","","","","image-keyboard-response","153","264453","0.0-3.0-0.34","","null","img_mproj/faces/10.jpg","null","actual_stimuli_presentation_1","",""
"","","","","","html-keyboard-response","154","264765","0.0-3.0-1.34","","null","<div style=""font-size:60px;"">+</div>","null","fixation","",""
"","","","","","image-keyboard-response","155","264967","0.0-3.0-2.34","","null","img_mproj/Mfaces/10.jpg","null","actual_stimuli_presentation_2","",""
"","","","","","html-keyboard-response","156","266161","0.0-3.0-3.34","","1194","<p> Press S if the two images were the same, Press D if the two images were different. </p>","s","response","s","SMM"
"","","","","","image-keyboard-response","157","266366","0.0-3.0-0.35","","null","img_mproj/Mfrench/3.jpg","null","actual_stimuli_presentation_1","",""
"","","","","","html-keyboard-response","158","266680","0.0-3.0-1.35","","null","<div style=""font-size:60px;"">+</div>","null","fixation","",""
"","","","","","image-keyboard-response","159","266895","0.0-3.0-2.35","","null","img_mproj/Mfrench/11.jpg","null","actual_stimuli_presentation_2","",""
"","","","","","html-keyboard-response","160","267981","0.0-3.0-3.35","","1086","<p> Press S if the two images were the same, Press D if the two images were different. </p>","d","response","d","DMF"
"","","","","","image-keyboard-response","161","268183","0.0-3.0-0.36","","null","img_mproj/faces/13.jpg","null","actual_stimuli_presentation_1","",""
"","","","","","html-keyboard-response","162","268489","0.0-3.0-1.36","","null","<div style=""font-size:60px;"">+</div>","null","fixation","",""
"","","","","","image-keyboard-response","163","268697","0.0-3.0-2.36","","null","img_mproj/Mfaces/13.jpg","null","actual_stimuli_presentation_2","",""
"","","","","","html-keyboard-response","164","269636","0.0-3.0-3.36","","940","<p> Press S if the two images were the same, Press D if the two images were different. </p>","s","response","s","SMM"
"","","","","","image-keyboard-response","165","269839","0.0-3.0-0.37","","null","img_mproj/Mtools/13.jpg","null","actual_stimuli_presentation_1","",""
"","","","","","html-keyboard-response","166","270150","0.0-3.0-1.37","","null","<div style=""font-size:60px;"">+</div>","null","fixation","",""
"","","","","","image-keyboard-response","167","270353","0.0-3.0-2.37","","null","img_mproj/Mtools/3.jpg","null","actual_stimuli_presentation_2","",""
"","","","","","html-keyboard-response","168","271290","0.0-3.0-3.37","","936","<p> Press S if the two images were the same, Press D if the two images were different. </p>","d","response","d","DMT"
"","","","","","image-keyboard-response","169","271494","0.0-3.0-0.38","","null","img_mproj/Mfrench/10.jpg","null","actual_stimuli_presentation_1","",""
"","","","","","html-keyboard-response","170","271804","0.0-3.0-1.38","","null","<div style=""font-size:60px;"">+</div>","null","fixation","",""
"","","","","","image-keyboard-response","171","272018","0.0-3.0-2.38","","null","img_mproj/Mfrench/6.jpg","null","actual_stimuli_presentation_2","",""
"","","","","","html-keyboard-response","172","272956","0.0-3.0-3.38","","938","<p> Press S if the two images were the same, Press D if the two images were different. </p>","d","response","d","DMF"
"","","","","","image-keyboard-response","173","273172","0.0-3.0-0.39","","null","img_mproj/french/10.jpg","null","actual_stimuli_presentation_1","",""
"","","","","","html-keyboard-response","174","273484","0.0-3.0-1.39","","null","<div style=""font-size:60px;"">+</div>","null","fixation","",""
"","","","","","image-keyboard-response","175","273687","0.0-3.0-2.39","","null","img_mproj/french/6.jpg","null","actual_stimuli_presentation_2","",""
"","","","","","html-keyboard-response","176","275266","0.0-3.0-3.39","","1579","<p> Press S if the two images were the same, Press D if the two images were different. </p>","s","response","d","DNF"
"","","","","","image-keyboard-response","177","275472","0.0-3.0-0.40","","null","img_mproj/Mfrench/14.jpg","null","actual_stimuli_presentation_1","",""
"","","","","","html-keyboard-response","178","275783","0.0-3.0-1.40","","null","<div style=""font-size:60px;"">+</div>","null","fixation","",""
"","","","","","image-keyboard-response","179","275995","0.0-3.0-2.40","","null","img_mproj/Mfrench/12.jpg","null","actual_stimuli_presentation_2","",""
"","","","","","html-keyboard-response","180","276594","0.0-3.0-3.40","","599","<p> Press S if the two images were the same, Press D if the two images were different. </p>","d","response","d","DMF"
"","","","","","image-keyboard-response","181","276799","0.0-3.0-0.41","","null","img_mproj/Mtools/8.jpg","null","actual_stimuli_presentation_1","",""
"","","","","","html-keyboard-response","182","277100","0.0-3.0-1.41","","null","<div style=""font-size:60px;"">+</div>","null","fixation","",""
"","","","","","image-keyboard-response","183","277301","0.0-3.0-2.41","","null","img_mproj/Mtools/9.jpg","null","actual_stimuli_presentation_2","",""
"","","","","","html-keyboard-response","184","277581","0.0-3.0-3.41","","279","<p> Press S if the two images were the same, Press D if the two images were different. </p>","d","response","d","DMT"
"","","","","","image-keyboard-response","185","277792","0.0-3.0-0.42","","null","img_mproj/false/11.jpg","null","actual_stimuli_presentation_1","",""
"","","","","","html-keyboard-response","186","278104","0.0-3.0-1.42","","null","<div style=""font-size:60px;"">+</div>","null","fixation","",""
"","","","","","image-keyboard-response","187","278320","0.0-3.0-2.42","","null","img_mproj/false/12.jpg","null","actual_stimuli_presentation_2","",""
"","","","","","html-keyboard-response","188","278887","0.0-3.0-3.42","","567","<p> Press S if the two images were the same, Press D if the two images were different. </p>","s","response","d","DNP"
"","","","","","image-keyboard-response","189","279100","0.0-3.0-0.43","","null","img_mproj/Mjap/3.jpg","null","actual_stimuli_presentation_1","",""
"","","","","","html-keyboard-response","190","279409","0.0-3.0-1.43","","null","<div style=""font-size:60px;"">+</div>","null","fixation","",""
"","","","","","image-keyboard-response","191","279610","0.0-3.0-2.43","","null","img_mproj/Mjap/11.jpg","null","actual_stimuli_presentation_2","",""
"","","","","","html-keyboard-response","192","280813","0.0-3.0-3.43","","1203","<p> Press S if the two images were the same, Press D if the two images were different. </p>","d","response","d","DMJ"
"","","","","","image-keyboard-response","193","281026","0.0-3.0-0.44","","null","img_mproj/Mjap/2.jpg","null","actual_stimuli_presentation_1","",""
"","","","","","html-keyboard-response","194","281337","0.0-3.0-1.44","","null","<div style=""font-size:60px;"">+</div>","null","fixation","",""
"","","","","","image-keyboard-response","195","281551","0.0-3.0-2.44","","null","img_mproj/Mjap/9.jpg","null","actual_stimuli_presentation_2","",""
"","","","","","html-keyboard-response","196","282364","0.0-3.0-3.44","","813","<p> Press S if the two images were the same, Press D if the two images were different. </p>","d","response","d","DMJ"
"","","","","","image-keyboard-response","197","282568","0.0-3.0-0.45","","null","img_mproj/french/12.jpg","null","actual_stimuli_presentation_1","",""
"","","","","","html-keyboard-response","198","282879","0.0-3.0-1.45","","null","<div style=""font-size:60px;"">+</div>","null","fixation","",""
"","","","","","image-keyboard-response","199","283083","0.0-3.0-2.45","","null","img_mproj/Mfrench/12.jpg","null","actual_stimuli_presentation_2","",""
"","","","","","html-keyboard-response","200","284050","0.0-3.0-3.45","","966","<p> Press S if the two images were the same, Press D if the two images were different. </p>","s","response","s","SMF"
"","","","","","image-keyboard-response","201","284269","0.0-3.0-0.46","","null","img_mproj/french/2.jpg","null","actual_stimuli_presentation_1","",""
"","","","","","html-keyboard-response","202","284575","0.0-3.0-1.46","","null","<div style=""font-size:60px;"">+</div>","null","fixation","",""
"","","","","","image-keyboard-response","203","284779","0.0-3.0-2.46","","null","img_mproj/french/2.jpg","null","actual_stimuli_presentation_2","",""
"","","","","","html-keyboard-response","204","288848","0.0-3.0-3.46","","4068","<p> Press S if the two images were the same, Press D if the two images were different. </p>","s","response","s","SNF"
"","","","","","image-keyboard-response","205","289063","0.0-3.0-0.47","","null","img_mproj/Mfalse/2.jpg","null","actual_stimuli_presentation_1","",""
"","","","","","html-keyboard-response","206","289374","0.0-3.0-1.47","","null","<div style=""font-size:60px;"">+</div>","null","fixation","",""
"","","","","","image-keyboard-response","207","289587","0.0-3.0-2.47","","null","img_mproj/Mfalse/9.jpg","null","actual_stimuli_presentation_2","",""
"","","","","","html-keyboard-response","208","289922","0.0-3.0-3.47","","334","<p> Press S if the two images were the same, Press D if the two images were different. </p>","d","response","d","DMP"
"","","","","","image-keyboard-response","209","290131","0.0-3.0-0.48","","null","img_mproj/Mfalse/3.jpg","null","actual_stimuli_presentation_1","",""
"","","","","","html-keyboard-response","210","290433","0.0-3.0-1.48","","null","<div style=""font-size:60px;"">+</div>","null","fixation","",""
"","","","","","image-keyboard-response","211","290648","0.0-3.0-2.48","","null","img_mproj/Mfalse/11.jpg","null","actual_stimuli_presentation_2","",""
"","","","","","html-keyboard-response","212","290991","0.0-3.0-3.48","","343","<p> Press S if the two images were the same, Press D if the two images were different. </p>","d","response","d","DMP"
"","","","","","image-keyboard-response","213","291194","0.0-3.0-0.49","","null","img_mproj/false/14.jpg","null","actual_stimuli_presentation_1","",""
"","","","","","html-keyboard-response","214","291504","0.0-3.0-1.49","","null","<div style=""font-size:60px;"">+</div>","null","fixation","",""
"","","","","","image-keyboard-response","215","291717","0.0-3.0-2.49","","null","img_mproj/Mfalse/14.jpg","null","actual_stimuli_presentation_2","",""
"","","","","","html-keyboard-response","216","292929","0.0-3.0-3.49","","1212","<p> Press S if the two images were the same, Press D if the two images were different. </p>","d","response","s","SMP"
"","","","","","image-keyboard-response","217","293140","0.0-3.0-0.50","","null","img_mproj/faces/5.jpg","null","actual_stimuli_presentation_1","",""
"","","","","","html-keyboard-response","218","293450","0.0-3.0-1.50","","null","<div style=""font-size:60px;"">+</div>","null","fixation","",""
"","","","","","image-keyboard-response","219","293658","0.0-3.0-2.50","","null","img_mproj/faces/5.jpg","null","actual_stimuli_presentation_2","",""
"","","","","","html-keyboard-response","220","294027","0.0-3.0-3.50","","369","<p> Press S if the two images were the same, Press D if the two images were different. </p>","s","response","s","SNM"
"","","","","","image-keyboard-response","221","294233","0.0-3.0-0.51","","null","img_mproj/faces/5.jpg","null","actual_stimuli_presentation_1","",""
"","","","","","html-keyboard-response","222","294541","0.0-3.0-1.51","","null","<div style=""font-size:60px;"">+</div>","null","fixation","",""
"","","","","","image-keyboard-response","223","294746","0.0-3.0-2.51","","null","img_mproj/faces/1.jpg","null","actual_stimuli_presentation_2","",""
"","","","","","html-keyboard-response","224","295422","0.0-3.0-3.51","","675","<p> Press S if the two images were the same, Press D if the two images were different. </p>","d","response","d","DNM"
"","","","","","image-keyboard-response","225","295626","0.0-3.0-0.52","","null","img_mproj/jap/8.jpg","null","actual_stimuli_presentation_1","",""
"","","","","","html-keyboard-response","226","295931","0.0-3.0-1.52","","null","<div style=""font-size:60px;"">+</div>","null","fixation","",""
"","","","","","image-keyboard-response","227","296133","0.0-3.0-2.52","","null","img_mproj/jap/9.jpg","null","actual_stimuli_presentation_2","",""
"","","","","","html-keyboard-response","228","297394","0.0-3.0-3.52","","1260","<p> Press S if the two images were the same, Press D if the two images were different. </p>","d","response","d","DNJ"
"","","","","","image-keyboard-response","229","297598","0.0-3.0-0.53","","null","img_mproj/tools/7.jpg","null","actual_stimuli_presentation_1","",""
"","","","","","html-keyboard-response","230","297908","0.0-3.0-1.53","","null","<div style=""font-size:60px;"">+</div>","null","fixation","",""
"","","","","","image-keyboard-response","231","298122","0.0-3.0-2.53","","null","img_mproj/tools/7.jpg","null","actual_stimuli_presentation_2","",""
"","","","","","html-keyboard-response","232","298427","0.0-3.0-3.53","","305","<p> Press S if the two images were the same, Press D if the two images were different. </p>","s","response","s","SNT"
"","","","","","image-keyboard-response","233","298636","0.0-3.0-0.54","","null","img_mproj/Mfrench/7.jpg","null","actual_stimuli_presentation_1","",""
"","","","","","html-keyboard-response","234","298950","0.0-3.0-1.54","","null","<div style=""font-size:60px;"">+</div>","null","fixation","",""
"","","","","","image-keyboard-response","235","299164","0.0-3.0-2.54","","null","img_mproj/Mfrench/6.jpg","null","actual_stimuli_presentation_2","",""
"","","","","","html-keyboard-response","236","299659","0.0-3.0-3.54","","495","<p> Press S if the two images were the same, Press D if the two images were different. </p>","d","response","d","DMF"
"","","","","","image-keyboard-response","237","299866","0.0-3.0-0.55","","null","img_mproj/jap/12.jpg","null","actual_stimuli_presentation_1","",""
"","","","","","html-keyboard-response","238","300178","0.0-3.0-1.55","","null","<div style=""font-size:60px;"">+</div>","null","fixation","",""
"","","","","","image-keyboard-response","239","300380","0.0-3.0-2.55","","null","img_mproj/Mjap/12.jpg","null","actual_stimuli_presentation_2","",""
"","","","","","html-keyboard-response","240","301424","0.0-3.0-3.55","","1043","<p> Press S if the two images were the same, Press D if the two images were different. </p>","s","response","s","SMJ"
"","","","","","image-keyboard-response","241","301628","0.0-3.0-0.56","","null","img_mproj/faces/14.jpg","null","actual_stimuli_presentation_1","",""
"","","","","","html-keyboard-response","242","301939","0.0-3.0-1.56","","null","<div style=""font-size:60px;"">+</div>","null","fixation","",""
"","","","","","image-keyboard-response","243","302149","0.0-3.0-2.56","","null","img_mproj/Mfaces/14.jpg","null","actual_stimuli_presentation_2","",""
"","","","","","html-keyboard-response","244","302723","0.0-3.0-3.56","","573","<p> Press S if the two images were the same, Press D if the two images were different. </p>","s","response","s","SMM"
"","","","","","image-keyboard-response","245","302925","0.0-3.0-0.57","","null","img_mproj/faces/11.jpg","null","actual_stimuli_presentation_1","",""
"","","","","","html-keyboard-response","246","303236","0.0-3.0-1.57","","null","<div style=""font-size:60px;"">+</div>","null","fixation","",""
"","","","","","image-keyboard-response","247","303439","0.0-3.0-2.57","","null","img_mproj/Mfaces/11.jpg","null","actual_stimuli_presentation_2","",""
"","","","","","html-keyboard-response","248","303810","0.0-3.0-3.57","","370","<p> Press S if the two images were the same, Press D if the two images were different. </p>","s","response","s","SMM"
"","","","","","image-keyboard-response","249","304021","0.0-3.0-0.58","","null","img_mproj/Mfalse/14.jpg","null","actual_stimuli_presentation_1","",""
"","","","","","html-keyboard-response","250","304323","0.0-3.0-1.58","","null","<div style=""font-size:60px;"">+</div>","null","fixation","",""
"","","","","","image-keyboard-response","251","304537","0.0-3.0-2.58","","null","img_mproj/Mfalse/12.jpg","null","actual_stimuli_presentation_2","",""
"","","","","","html-keyboard-response","252","304962","0.0-3.0-3.58","","425","<p> Press S if the two images were the same, Press D if the two images were different. </p>","d","response","d","DMP"
"","","","","","image-keyboard-response","253","305170","0.0-3.0-0.59","","null","img_mproj/false/4.jpg","null","actual_stimuli_presentation_1","",""
"","","","","","html-keyboard-response","254","305470","0.0-3.0-1.59","","null","<div style=""font-size:60px;"">+</div>","null","fixation","",""
"","","","","","image-keyboard-response","255","305677","0.0-3.0-2.59","","null","img_mproj/Mfalse/4.jpg","null","actual_stimuli_presentation_2","",""
"","","","","","html-keyboard-response","256","306160","0.0-3.0-3.59","","482","<p> Press S if the two images were the same, Press D if the two images were different. </p>","s","response","s","SMP"
"","","","","","image-keyboard-response","257","306364","0.0-3.0-0.60","","null","img_mproj/french/1.jpg","null","actual_stimuli_presentation_1","",""
"","","","","","html-keyboard-response","258","306672","0.0-3.0-1.60","","null","<div style=""font-size:60px;"">+</div>","null","fixation","",""
"","","","","","image-keyboard-response","259","306876","0.0-3.0-2.60","","null","img_mproj/french/1.jpg","null","actual_stimuli_presentation_2","",""
"","","","","","html-keyboard-response","260","307203","0.0-3.0-3.60","","327","<p> Press S if the two images were the same, Press D if the two images were different. </p>","s","response","s","SNF"
"","","","","","image-keyboard-response","261","307411","0.0-3.0-0.61","","null","img_mproj/false/9.jpg","null","actual_stimuli_presentation_1","",""
"","","","","","html-keyboard-response","262","307725","0.0-3.0-1.61","","null","<div style=""font-size:60px;"">+</div>","null","fixation","",""
"","","","","","image-keyboard-response","263","307928","0.0-3.0-2.61","","null","img_mproj/Mfalse/9.jpg","null","actual_stimuli_presentation_2","",""
"","","","","","html-keyboard-response","264","308624","0.0-3.0-3.61","","696","<p> Press S if the two images were the same, Press D if the two images were different. </p>","s","response","s","SMP"
"","","","","","image-keyboard-response","265","308830","0.0-3.0-0.62","","null","img_mproj/jap/6.jpg","null","actual_stimuli_presentation_1","",""
"","","","","","html-keyboard-response","266","309141","0.0-3.0-1.62","","null","<div style=""font-size:60px;"">+</div>","null","fixation","",""
"","","","","","image-keyboard-response","267","309357","0.0-3.0-2.62","","null","img_mproj/jap/6.jpg","null","actual_stimuli_presentation_2","",""
"","","","","","html-keyboard-response","268","309710","0.0-3.0-3.62","","352","<p> Press S if the two images were the same, Press D if the two images were different. </p>","s","response","s","SNJ"
"","","","","","image-keyboard-response","269","309917","0.0-3.0-0.63","","null","img_mproj/faces/8.jpg","null","actual_stimuli_presentation_1","",""
"","","","","","html-keyboard-response","270","310229","0.0-3.0-1.63","","null","<div style=""font-size:60px;"">+</div>","null","fixation","",""
"","","","","","image-keyboard-response","271","310443","0.0-3.0-2.63","","null","img_mproj/Mfaces/8.jpg","null","actual_stimuli_presentation_2","",""
"","","","","","html-keyboard-response","272","310957","0.0-3.0-3.63","","513","<p> Press S if the two images were the same, Press D if the two images were different. </p>","s","response","s","SMM"
"","","","","","image-keyboard-response","273","311173","0.0-3.0-0.64","","null","img_mproj/Mfaces/7.jpg","null","actual_stimuli_presentation_1","",""
"","","","","","html-keyboard-response","274","311476","0.0-3.0-1.64","","null","<div style=""font-size:60px;"">+</div>","null","fixation","",""
"","","","","","image-keyboard-response","275","311688","0.0-3.0-2.64","","null","img_mproj/Mfaces/6.jpg","null","actual_stimuli_presentation_2","",""
"","","","","","html-keyboard-response","276","314495","0.0-3.0-3.64","","2807","<p> Press S if the two images were the same, Press D if the two images were different. </p>","d","response","d","DMM"
"","","","","","image-keyboard-response","277","314710","0.0-3.0-0.65","","null","img_mproj/Mfrench/2.jpg","null","actual_stimuli_presentation_1","",""
"","","","","","html-keyboard-response","278","315022","0.0-3.0-1.65","","null","<div style=""font-size:60px;"">+</div>","null","fixation","",""
"","","","","","image-keyboard-response","279","315233","0.0-3.0-2.65","","null","img_mproj/Mfrench/9.jpg","null","actual_stimuli_presentation_2","",""
"","","","","","html-keyboard-response","280","316834","0.0-3.0-3.65","","1600","<p> Press S if the two images were the same, Press D if the two images were different. </p>","d","response","d","DMF"
"","","","","","image-keyboard-response","281","317050","0.0-3.0-0.66","","null","img_mproj/jap/9.jpg","null","actual_stimuli_presentation_1","",""
"","","","","","html-keyboard-response","282","317363","0.0-3.0-1.66","","null","<div style=""font-size:60px;"">+</div>","null","fixation","",""
"","","","","","image-keyboard-response","283","317572","0.0-3.0-2.66","","null","img_mproj/Mjap/9.jpg","null","actual_stimuli_presentation_2","",""
"","","","","","html-keyboard-response","284","317940","0.0-3.0-3.66","","366","<p> Press S if the two images were the same, Press D if the two images were different. </p>","s","response","s","SMJ"
"","","","","","image-keyboard-response","285","318145","0.0-3.0-0.67","","null","img_mproj/Mjap/8.jpg","null","actual_stimuli_presentation_1","",""
"","","","","","html-keyboard-response","286","318448","0.0-3.0-1.67","","null","<div style=""font-size:60px;"">+</div>","null","fixation","",""
"","","","","","image-keyboard-response","287","318664","0.0-3.0-2.67","","null","img_mproj/Mjap/9.jpg","null","actual_stimuli_presentation_2","",""
"","","","","","html-keyboard-response","288","319146","0.0-3.0-3.67","","482","<p> Press S if the two images were the same, Press D if the two images were different. </p>","d","response","d","DMJ"
"","","","","","image-keyboard-response","289","319354","0.0-3.0-0.68","","null","img_mproj/jap/13.jpg","null","actual_stimuli_presentation_1","",""
"","","","","","html-keyboard-response","290","319661","0.0-3.0-1.68","","null","<div style=""font-size:60px;"">+</div>","null","fixation","",""
"","","","","","image-keyboard-response","291","319864","0.0-3.0-2.68","","null","img_mproj/jap/13.jpg","null","actual_stimuli_presentation_2","",""
"","","","","","html-keyboard-response","292","320234","0.0-3.0-3.68","","370","<p> Press S if the two images were the same, Press D if the two images were different. </p>","s","response","s","SNJ"
"","","","","","image-keyboard-response","293","320435","0.0-3.0-0.69","","null","img_mproj/faces/6.jpg","null","actual_stimuli_presentation_1","",""
"","","","","","html-keyboard-response","294","320737","0.0-3.0-1.69","","null","<div style=""font-size:60px;"">+</div>","null","fixation","",""
"","","","","","image-keyboard-response","295","320938","0.0-3.0-2.69","","null","img_mproj/faces/13.jpg","null","actual_stimuli_presentation_2","",""
"","","","","","html-keyboard-response","296","321310","0.0-3.0-3.69","","371","<p> Press S if the two images were the same, Press D if the two images were different. </p>","d","response","d","DNM"
"","","","","","image-keyboard-response","297","321515","0.0-3.0-0.70","","null","img_mproj/faces/1.jpg","null","actual_stimuli_presentation_1","",""
"","","","","","html-keyboard-response","298","321822","0.0-3.0-1.70","","null","<div style=""font-size:60px;"">+</div>","null","fixation","",""
"","","","","","image-keyboard-response","299","322031","0.0-3.0-2.70","","null","img_mproj/Mfaces/1.jpg","null","actual_stimuli_presentation_2","",""
"","","","","","html-keyboard-response","300","322682","0.0-3.0-3.70","","650","<p> Press S if the two images were the same, Press D if the two images were different. </p>","s","response","s","SMM"
"","","","","","image-keyboard-response","301","322899","0.0-3.0-0.71","","null","img_mproj/jap/12.jpg","null","actual_stimuli_presentation_1","",""
"","","","","","html-keyboard-response","302","323211","0.0-3.0-1.71","","null","<div style=""font-size:60px;"">+</div>","null","fixation","",""
"","","","","","image-keyboard-response","303","323428","0.0-3.0-2.71","","null","img_mproj/jap/2.jpg","null","actual_stimuli_presentation_2","",""
"","","","","","html-keyboard-response","304","324291","0.0-3.0-3.71","","863","<p> Press S if the two images were the same, Press D if the two images were different. </p>","d","response","d","DNJ"
"","","","","","image-keyboard-response","305","324494","0.0-3.0-0.72","","null","img_mproj/jap/5.jpg","null","actual_stimuli_presentation_1","",""
"","","","","","html-keyboard-response","306","324795","0.0-3.0-1.72","","null","<div style=""font-size:60px;"">+</div>","null","fixation","",""
"","","","","","image-keyboard-response","307","325008","0.0-3.0-2.72","","null","img_mproj/jap/1.jpg","null","actual_stimuli_presentation_2","",""
"","","","","","html-keyboard-response","308","325596","0.0-3.0-3.72","","587","<p> Press S if the two images were the same, Press D if the two images were different. </p>","d","response","d","DNJ"
"","","","","","image-keyboard-response","309","325802","0.0-3.0-0.73","","null","img_mproj/tools/8.jpg","null","actual_stimuli_presentation_1","",""
"","","","","","html-keyboard-response","310","326114","0.0-3.0-1.73","","null","<div style=""font-size:60px;"">+</div>","null","fixation","",""
"","","","","","image-keyboard-response","311","326316","0.0-3.0-2.73","","null","img_mproj/Mtools/8.jpg","null","actual_stimuli_presentation_2","",""
"","","","","","html-keyboard-response","312","326822","0.0-3.0-3.73","","506","<p> Press S if the two images were the same, Press D if the two images were different. </p>","s","response","s","SMT"
"","","","","","image-keyboard-response","313","327039","0.0-3.0-0.74","","null","img_mproj/false/9.jpg","null","actual_stimuli_presentation_1","",""
"","","","","","html-keyboard-response","314","327350","0.0-3.0-1.74","","null","<div style=""font-size:60px;"">+</div>","null","fixation","",""
"","","","","","image-keyboard-response","315","327553","0.0-3.0-2.74","","null","img_mproj/false/9.jpg","null","actual_stimuli_presentation_2","",""
"","","","","","html-keyboard-response","316","329512","0.0-3.0-3.74","","1958","<p> Press S if the two images were the same, Press D if the two images were different. </p>","s","response","s","SNP"
"","","","","","image-keyboard-response","317","329717","0.0-3.0-0.75","","null","img_mproj/false/4.jpg","null","actual_stimuli_presentation_1","",""
"","","","","","html-keyboard-response","318","330029","0.0-3.0-1.75","","null","<div style=""font-size:60px;"">+</div>","null","fixation","",""
"","","","","","image-keyboard-response","319","330242","0.0-3.0-2.75","","null","img_mproj/false/1.jpg","null","actual_stimuli_presentation_2","",""
"","","","","","html-keyboard-response","320","330448","0.0-3.0-3.75","","205","<p> Press S if the two images were the same, Press D if the two images were different. </p>","d","response","d","DNP"
"","","","","","image-keyboard-response","321","330663","0.0-3.0-0.76","","null","img_mproj/Mjap/12.jpg","null","actual_stimuli_presentation_1","",""
"","","","","","html-keyboard-response","322","330973","0.0-3.0-1.76","","null","<div style=""font-size:60px;"">+</div>","null","fixation","",""
"","","","","","image-keyboard-response","323","331177","0.0-3.0-2.76","","null","img_mproj/Mjap/2.jpg","null","actual_stimuli_presentation_2","",""
"","","","","","html-keyboard-response","324","331773","0.0-3.0-3.76","","596","<p> Press S if the two images were the same, Press D if the two images were different. </p>","d","response","d","DMJ"
"","","","","","image-keyboard-response","325","331989","0.0-3.0-0.77","","null","img_mproj/tools/13.jpg","null","actual_stimuli_presentation_1","",""
"","","","","","html-keyboard-response","326","332300","0.0-3.0-1.77","","null","<div style=""font-size:60px;"">+</div>","null","fixation","",""
"","","","","","image-keyboard-response","327","332503","0.0-3.0-2.77","","null","img_mproj/Mtools/13.jpg","null","actual_stimuli_presentation_2","",""
"","","","","","html-keyboard-response","328","332822","0.0-3.0-3.77","","318","<p> Press S if the two images were the same, Press D if the two images were different. </p>","s","response","s","SMT"
"","","","","","image-keyboard-response","329","333034","0.0-3.0-0.78","","null","img_mproj/Mtools/4.jpg","null","actual_stimuli_presentation_1","",""
"","","","","","html-keyboard-response","330","333350","0.0-3.0-1.78","","null","<div style=""font-size:60px;"">+</div>","null","fixation","",""
"","","","","","image-keyboard-response","331","333552","0.0-3.0-2.78","","null","img_mproj/Mtools/1.jpg","null","actual_stimuli_presentation_2","",""
"","","","","","html-keyboard-response","332","334072","0.0-3.0-3.78","","520","<p> Press S if the two images were the same, Press D if the two images were different. </p>","d","response","d","DMT"
"","","","","","image-keyboard-response","333","334285","0.0-3.0-0.79","","null","img_mproj/tools/4.jpg","null","actual_stimuli_presentation_1","",""
"","","","","","html-keyboard-response","334","334601","0.0-3.0-1.79","","null","<div style=""font-size:60px;"">+</div>","null","fixation","",""
"","","","","","image-keyboard-response","335","334803","0.0-3.0-2.79","","null","img_mproj/tools/1.jpg","null","actual_stimuli_presentation_2","",""
"","","","","","html-keyboard-response","336","336047","0.0-3.0-3.79","","1243","<p> Press S if the two images were the same, Press D if the two images were different. </p>","d","response","d","DNT"
"","","","","","image-keyboard-response","337","336250","0.0-3.0-0.80","","null","img_mproj/jap/2.jpg","null","actual_stimuli_presentation_1","",""
"","","","","","html-keyboard-response","338","336566","0.0-3.0-1.80","","null","<div style=""font-size:60px;"">+</div>","null","fixation","",""
"","","","","","image-keyboard-response","339","336769","0.0-3.0-2.80","","null","img_mproj/jap/2.jpg","null","actual_stimuli_presentation_2","",""
"","","","","","html-keyboard-response","340","337241","0.0-3.0-3.80","","472","<p> Press S if the two images were the same, Press D if the two images were different. </p>","s","response","s","SNJ"
"","","","","","image-keyboard-response","341","337454","0.0-3.0-0.81","","null","img_mproj/tools/8.jpg","null","actual_stimuli_presentation_1","",""
"","","","","","html-keyboard-response","342","337763","0.0-3.0-1.81","","null","<div style=""font-size:60px;"">+</div>","null","fixation","",""
"","","","","","image-keyboard-response","343","337966","0.0-3.0-2.81","","null","img_mproj/tools/9.jpg","null","actual_stimuli_presentation_2","",""
"","","","","","html-keyboard-response","344","338543","0.0-3.0-3.81","","576","<p> Press S if the two images were the same, Press D if the two images were different. </p>","d","response","d","DNT"
"","","","","","image-keyboard-response","345","338745","0.0-3.0-0.82","","null","img_mproj/french/11.jpg","null","actual_stimuli_presentation_1","",""
"","","","","","html-keyboard-response","346","339056","0.0-3.0-1.82","","null","<div style=""font-size:60px;"">+</div>","null","fixation","",""
"","","","","","image-keyboard-response","347","339269","0.0-3.0-2.82","","null","img_mproj/Mfrench/11.jpg","null","actual_stimuli_presentation_2","",""
"","","","","","html-keyboard-response","348","342907","0.0-3.0-3.82","","3637","<p> Press S if the two images were the same, Press D if the two images were different. </p>","d","response","s","SMF"
"","","","","","image-keyboard-response","349","343121","0.0-3.0-0.83","","null","img_mproj/false/8.jpg","null","actual_stimuli_presentation_1","",""
"","","","","","html-keyboard-response","350","343433","0.0-3.0-1.83","","null","<div style=""font-size:60px;"">+</div>","null","fixation","",""
"","","","","","image-keyboard-response","351","343636","0.0-3.0-2.83","","null","img_mproj/false/9.jpg","null","actual_stimuli_presentation_2","",""
"","","","","","html-keyboard-response","352","344675","0.0-3.0-3.83","","1039","<p> Press S if the two images were the same, Press D if the two images were different. </p>","d","response","d","DNP"
"","","","","","image-keyboard-response","353","344878","0.0-3.0-0.84","","null","img_mproj/tools/3.jpg","null","actual_stimuli_presentation_1","",""
"","","","","","html-keyboard-response","354","345190","0.0-3.0-1.84","","null","<div style=""font-size:60px;"">+</div>","null","fixation","",""
"","","","","","image-keyboard-response","355","345406","0.0-3.0-2.84","","null","img_mproj/tools/3.jpg","null","actual_stimuli_presentation_2","",""
"","","","","","html-keyboard-response","356","345794","0.0-3.0-3.84","","388","<p> Press S if the two images were the same, Press D if the two images were different. </p>","s","response","s","SNT"
"","","","","","image-keyboard-response","357","345996","0.0-3.0-0.85","","null","img_mproj/faces/2.jpg","null","actual_stimuli_presentation_1","",""
"","","","","","html-keyboard-response","358","346298","0.0-3.0-1.85","","null","<div style=""font-size:60px;"">+</div>","null","fixation","",""
"","","","","","image-keyboard-response","359","346500","0.0-3.0-2.85","","null","img_mproj/faces/9.jpg","null","actual_stimuli_presentation_2","",""
"","","","","","html-keyboard-response","360","347866","0.0-3.0-3.85","","1366","<p> Press S if the two images were the same, Press D if the two images were different. </p>","d","response","d","DNM"
"","","","","","image-keyboard-response","361","348077","0.0-3.0-0.86","","null","img_mproj/jap/6.jpg","null","actual_stimuli_presentation_1","",""
"","","","","","html-keyboard-response","362","348386","0.0-3.0-1.86","","null","<div style=""font-size:60px;"">+</div>","null","fixation","",""
"","","","","","image-keyboard-response","363","348592","0.0-3.0-2.86","","null","img_mproj/Mjap/6.jpg","null","actual_stimuli_presentation_2","",""
"","","","","","html-keyboard-response","364","348951","0.0-3.0-3.86","","358","<p> Press S if the two images were the same, Press D if the two images were different. </p>","s","response","s","SMJ"
"","","","","","image-keyboard-response","365","349166","0.0-3.0-0.87","","null","img_mproj/tools/13.jpg","null","actual_stimuli_presentation_1","",""
"","","","","","html-keyboard-response","366","349477","0.0-3.0-1.87","","null","<div style=""font-size:60px;"">+</div>","null","fixation","",""
"","","","","","image-keyboard-response","367","349679","0.0-3.0-2.87","","null","img_mproj/tools/3.jpg","null","actual_stimuli_presentation_2","",""
"","","","","","html-keyboard-response","368","365433","0.0-3.0-3.87","","15754","<p> Press S if the two images were the same, Press D if the two images were different. </p>","d","response","d","DNT"
"","","","","","image-keyboard-response","369","365643","0.0-3.0-0.88","","null","img_mproj/jap/4.jpg","null","actual_stimuli_presentation_1","",""
"","","","","","html-keyboard-response","370","365954","0.0-3.0-1.88","","null","<div style=""font-size:60px;"">+</div>","null","fixation","",""
"","","","","","image-keyboard-response","371","366156","0.0-3.0-2.88","","null","img_mproj/jap/4.jpg","null","actual_stimuli_presentation_2","",""
"","","","","","html-keyboard-response","372","366964","0.0-3.0-3.88","","808","<p> Press S if the two images were the same, Press D if the two images were different. </p>","d","response","s","SNJ"
"","","","","","image-keyboard-response","373","367179","0.0-3.0-0.89","","null","img_mproj/tools/3.jpg","null","actual_stimuli_presentation_1","",""
"","","","","","html-keyboard-response","374","367493","0.0-3.0-1.89","","null","<div style=""font-size:60px;"">+</div>","null","fixation","",""
"","","","","","image-keyboard-response","375","367697","0.0-3.0-2.89","","null","img_mproj/Mtools/3.jpg","null","actual_stimuli_presentation_2","",""
"","","","","","html-keyboard-response","376","369099","0.0-3.0-3.89","","1402","<p> Press S if the two images were the same, Press D if the two images were different. </p>","s","response","s","SMT"
"","","","","","image-keyboard-response","377","369315","0.0-3.0-0.90","","null","img_mproj/french/11.jpg","null","actual_stimuli_presentation_1","",""
"","","","","","html-keyboard-response","378","369628","0.0-3.0-1.90","","null","<div style=""font-size:60px;"">+</div>","null","fixation","",""
"","","","","","image-keyboard-response","379","369838","0.0-3.0-2.90","","null","img_mproj/french/12.jpg","null","actual_stimuli_presentation_2","",""
"","","","","","html-keyboard-response","380","370454","0.0-3.0-3.90","","616","<p> Press S if the two images were the same, Press D if the two images were different. </p>","d","response","d","DNF"
"","","","","","image-keyboard-response","381","370659","0.0-3.0-0.91","","null","img_mproj/french/6.jpg","null","actual_stimuli_presentation_1","",""
"","","","","","html-keyboard-response","382","370964","0.0-3.0-1.91","","null","<div style=""font-size:60px;"">+</div>","null","fixation","",""
"","","","","","image-keyboard-response","383","371179","0.0-3.0-2.91","","null","img_mproj/french/13.jpg","null","actual_stimuli_presentation_2","",""
"","","","","","html-keyboard-response","384","371872","0.0-3.0-3.91","","693","<p> Press S if the two images were the same, Press D if the two images were different. </p>","d","response","d","DNF"
"","","","","","image-keyboard-response","385","372088","0.0-3.0-0.92","","null","img_mproj/jap/4.jpg","null","actual_stimuli_presentation_1","",""
"","","","","","html-keyboard-response","386","372399","0.0-3.0-1.92","","null","<div style=""font-size:60px;"">+</div>","null","fixation","",""
"","","","","","image-keyboard-response","387","372603","0.0-3.0-2.92","","null","img_mproj/Mjap/4.jpg","null","actual_stimuli_presentation_2","",""
"","","","","","html-keyboard-response","388","373120","0.0-3.0-3.92","","517","<p> Press S if the two images were the same, Press D if the two images were different. </p>","s","response","s","SMJ"
"","","","","","image-keyboard-response","389","373335","0.0-3.0-0.93","","null","img_mproj/tools/14.jpg","null","actual_stimuli_presentation_1","",""
"","","","","","html-keyboard-response","390","373646","0.0-3.0-1.93","","null","<div style=""font-size:60px;"">+</div>","null","fixation","",""
"","","","","","image-keyboard-response","391","373849","0.0-3.0-2.93","","null","img_mproj/tools/14.jpg","null","actual_stimuli_presentation_2","",""
"","","","","","html-keyboard-response","392","374013","0.0-3.0-3.93","","163","<p> Press S if the two images were the same, Press D if the two images were different. </p>","s","response","s","SNT"
"","","","","","image-keyboard-response","393","374218","0.0-3.0-0.94","","null","img_mproj/french/9.jpg","null","actual_stimuli_presentation_1","",""
"","","","","","html-keyboard-response","394","374531","0.0-3.0-1.94","","null","<div style=""font-size:60px;"">+</div>","null","fixation","",""
"","","","","","image-keyboard-response","395","374733","0.0-3.0-2.94","","null","img_mproj/french/9.jpg","null","actual_stimuli_presentation_2","",""
"","","","","","html-keyboard-response","396","375143","0.0-3.0-3.94","","410","<p> Press S if the two images were the same, Press D if the two images were different. </p>","s","response","s","SNF"
"","","","","","image-keyboard-response","397","375354","0.0-3.0-0.95","","null","img_mproj/false/6.jpg","null","actual_stimuli_presentation_1","",""
"","","","","","html-keyboard-response","398","375666","0.0-3.0-1.95","","null","<div style=""font-size:60px;"">+</div>","null","fixation","",""
"","","","","","image-keyboard-response","399","375875","0.0-3.0-2.95","","null","img_mproj/Mfalse/6.jpg","null","actual_stimuli_presentation_2","",""
"","","","","","html-keyboard-response","400","376417","0.0-3.0-3.95","","542","<p> Press S if the two images were the same, Press D if the two images were different. </p>","d","response","s","SMP"
"","","","","","image-keyboard-response","401","376631","0.0-3.0-0.96","","null","img_mproj/french/5.jpg","null","actual_stimuli_presentation_1","",""
"","","","","","html-keyboard-response","402","376945","0.0-3.0-1.96","","null","<div style=""font-size:60px;"">+</div>","null","fixation","",""
"","","","","","image-keyboard-response","403","377149","0.0-3.0-2.96","","null","img_mproj/Mfrench/5.jpg","null","actual_stimuli_presentation_2","",""
"","","","","","html-keyboard-response","404","377828","0.0-3.0-3.96","","679","<p> Press S if the two images were the same, Press D if the two images were different. </p>","s","response","s","SMF"
"","","","","","image-keyboard-response","405","378032","0.0-3.0-0.97","","null","img_mproj/Mjap/13.jpg","null","actual_stimuli_presentation_1","",""
"","","","","","html-keyboard-response","406","378343","0.0-3.0-1.97","","null","<div style=""font-size:60px;"">+</div>","null","fixation","",""
"","","","","","image-keyboard-response","407","378556","0.0-3.0-2.97","","null","img_mproj/Mjap/3.jpg","null","actual_stimuli_presentation_2","",""
"","","","","","html-keyboard-response","408","384521","0.0-3.0-3.97","","5965","<p> Press S if the two images were the same, Press D if the two images were different. </p>","d","response","d","DMJ"
"","","","","","image-keyboard-response","409","384736","0.0-3.0-0.98","","null","img_mproj/tools/14.jpg","null","actual_stimuli_presentation_1","",""
"","","","","","html-keyboard-response","410","385039","0.0-3.0-1.98","","null","<div style=""font-size:60px;"">+</div>","null","fixation","",""
"","","","","","image-keyboard-response","411","385242","0.0-3.0-2.98","","null","img_mproj/Mtools/14.jpg","null","actual_stimuli_presentation_2","",""
"","","","","","html-keyboard-response","412","385925","0.0-3.0-3.98","","683","<p> Press S if the two images were the same, Press D if the two images were different. </p>","s","response","s","SMT"
"","","","","","image-keyboard-response","413","386128","0.0-3.0-0.99","","null","img_mproj/faces/4.jpg","null","actual_stimuli_presentation_1","",""
"","","","","","html-keyboard-response","414","386440","0.0-3.0-1.99","","null","<div style=""font-size:60px;"">+</div>","null","fixation","",""
"","","","","","image-keyboard-response","415","386643","0.0-3.0-2.99","","null","img_mproj/faces/4.jpg","null","actual_stimuli_presentation_2","",""
"","","","","","html-keyboard-response","416","386825","0.0-3.0-3.99","","182","<p> Press S if the two images were the same, Press D if the two images were different. </p>","s","response","s","SNM"
"","","","","","image-keyboard-response","417","387036","0.0-3.0-0.100","","null","img_mproj/faces/9.jpg","null","actual_stimuli_presentation_1","",""
"","","","","","html-keyboard-response","418","387348","0.0-3.0-1.100","","null","<div style=""font-size:60px;"">+</div>","null","fixation","",""
"","","","","","image-keyboard-response","419","387552","0.0-3.0-2.100","","null","img_mproj/Mfaces/9.jpg","null","actual_stimuli_presentation_2","",""
"","","","","","html-keyboard-response","420","388093","0.0-3.0-3.100","","540","<p> Press S if the two images were the same, Press D if the two images were different. </p>","s","response","s","SMM"
"","","","","","image-keyboard-response","421","388307","0.0-3.0-0.101","","null","img_mproj/Mtools/3.jpg","null","actual_stimuli_presentation_1","",""
"","","","","","html-keyboard-response","422","388615","0.0-3.0-1.101","","null","<div style=""font-size:60px;"">+</div>","null","fixation","",""
"","","","","","image-keyboard-response","423","388818","0.0-3.0-2.101","","null","img_mproj/Mtools/11.jpg","null","actual_stimuli_presentation_2","",""
"","","","","","html-keyboard-response","424","389351","0.0-3.0-3.101","","532","<p> Press S if the two images were the same, Press D if the two images were different. </p>","d","response","d","DMT"
"","","","","","image-keyboard-response","425","389558","0.0-3.0-0.102","","null","img_mproj/Mfalse/13.jpg","null","actual_stimuli_presentation_1","",""
"","","","","","html-keyboard-response","426","389871","0.0-3.0-1.102","","null","<div style=""font-size:60px;"">+</div>","null","fixation","",""
"","","","","","image-keyboard-response","427","390073","0.0-3.0-2.102","","null","img_mproj/Mfalse/3.jpg","null","actual_stimuli_presentation_2","",""
"","","","","","html-keyboard-response","428","390985","0.0-3.0-3.102","","912","<p> Press S if the two images were the same, Press D if the two images were different. </p>","s","response","d","DMP"
"","","","","","image-keyboard-response","429","391187","0.0-3.0-0.103","","null","img_mproj/false/14.jpg","null","actual_stimuli_presentation_1","",""
"","","","","","html-keyboard-response","430","391498","0.0-3.0-1.103","","null","<div style=""font-size:60px;"">+</div>","null","fixation","",""
"","","","","","image-keyboard-response","431","391707","0.0-3.0-2.103","","null","img_mproj/false/12.jpg","null","actual_stimuli_presentation_2","",""
"","","","","","html-keyboard-response","432","392071","0.0-3.0-3.103","","363","<p> Press S if the two images were the same, Press D if the two images were different. </p>","d","response","d","DNP"
"","","","","","image-keyboard-response","433","392288","0.0-3.0-0.104","","null","img_mproj/Mtools/7.jpg","null","actual_stimuli_presentation_1","",""
"","","","","","html-keyboard-response","434","392599","0.0-3.0-1.104","","null","<div style=""font-size:60px;"">+</div>","null","fixation","",""
"","","","","","image-keyboard-response","435","392816","0.0-3.0-2.104","","null","img_mproj/Mtools/6.jpg","null","actual_stimuli_presentation_2","",""
"","","","","","html-keyboard-response","436","393227","0.0-3.0-3.104","","411","<p> Press S if the two images were the same, Press D if the two images were different. </p>","d","response","d","DMT"
"","","","","","image-keyboard-response","437","393434","0.0-3.0-0.105","","null","img_mproj/Mtools/9.jpg","null","actual_stimuli_presentation_1","",""
"","","","","","html-keyboard-response","438","393745","0.0-3.0-1.105","","null","<div style=""font-size:60px;"">+</div>","null","fixation","",""
"","","","","","image-keyboard-response","439","393961","0.0-3.0-2.105","","null","img_mproj/Mtools/4.jpg","null","actual_stimuli_presentation_2","",""
"","","","","","html-keyboard-response","440","394235","0.0-3.0-3.105","","274","<p> Press S if the two images were the same, Press D if the two images were different. </p>","d","response","d","DMT"
"","","","","","image-keyboard-response","441","394444","0.0-3.0-0.106","","null","img_mproj/Mfrench/1.jpg","null","actual_stimuli_presentation_1","",""
"","","","","","html-keyboard-response","442","394756","0.0-3.0-1.106","","null","<div style=""font-size:60px;"">+</div>","null","fixation","",""
"","","","","","image-keyboard-response","443","394960","0.0-3.0-2.106","","null","img_mproj/Mfrench/13.jpg","null","actual_stimuli_presentation_2","",""
"","","","","","html-keyboard-response","444","395857","0.0-3.0-3.106","","896","<p> Press S if the two images were the same, Press D if the two images were different. </p>","d","response","d","DMF"
"","","","","","image-keyboard-response","445","396058","0.0-3.0-0.107","","null","img_mproj/jap/13.jpg","null","actual_stimuli_presentation_1","",""
"","","","","","html-keyboard-response","446","396369","0.0-3.0-1.107","","null","<div style=""font-size:60px;"">+</div>","null","fixation","",""
"","","","","","image-keyboard-response","447","396585","0.0-3.0-2.107","","null","img_mproj/Mjap/13.jpg","null","actual_stimuli_presentation_2","",""
"","","","","","html-keyboard-response","448","396927","0.0-3.0-3.107","","341","<p> Press S if the two images were the same, Press D if the two images were different. </p>","s","response","s","SMJ"
"","","","","","image-keyboard-response","449","397132","0.0-3.0-0.108","","null","img_mproj/tools/4.jpg","null","actual_stimuli_presentation_1","",""
"","","","","","html-keyboard-response","450","397444","0.0-3.0-1.108","","null","<div style=""font-size:60px;"">+</div>","null","fixation","",""
"","","","","","image-keyboard-response","451","397646","0.0-3.0-2.108","","null","img_mproj/Mtools/4.jpg","null","actual_stimuli_presentation_2","",""
"","","","","","html-keyboard-response","452","398129","0.0-3.0-3.108","","483","<p> Press S if the two images were the same, Press D if the two images were different. </p>","s","response","s","SMT"
"","","","","","image-keyboard-response","453","398346","0.0-3.0-0.109","","null","img_mproj/false/8.jpg","null","actual_stimuli_presentation_1","",""
"","","","","","html-keyboard-response","454","398658","0.0-3.0-1.109","","null","<div style=""font-size:60px;"">+</div>","null","fixation","",""
"","","","","","image-keyboard-response","455","398868","0.0-3.0-2.109","","null","img_mproj/Mfalse/8.jpg","null","actual_stimuli_presentation_2","",""
"","","","","","html-keyboard-response","456","399706","0.0-3.0-3.109","","837","<p> Press S if the two images were the same, Press D if the two images were different. </p>","s","response","s","SMP"
"","","","","","image-keyboard-response","457","399916","0.0-3.0-0.110","","null","img_mproj/french/14.jpg","null","actual_stimuli_presentation_1","",""
"","","","","","html-keyboard-response","458","400223","0.0-3.0-1.110","","null","<div style=""font-size:60px;"">+</div>","null","fixation","",""
"","","","","","image-keyboard-response","459","400430","0.0-3.0-2.110","","null","img_mproj/french/14.jpg","null","actual_stimuli_presentation_2","",""
"","","","","","html-keyboard-response","460","400993","0.0-3.0-3.110","","562","<p> Press S if the two images were the same, Press D if the two images were different. </p>","s","response","s","SNF"
"","","","","","image-keyboard-response","461","401201","0.0-3.0-0.111","","null","img_mproj/faces/12.jpg","null","actual_stimuli_presentation_1","",""
"","","","","","html-keyboard-response","462","401514","0.0-3.0-1.111","","null","<div style=""font-size:60px;"">+</div>","null","fixation","",""
"","","","","","image-keyboard-response","463","401724","0.0-3.0-2.111","","null","img_mproj/faces/2.jpg","null","actual_stimuli_presentation_2","",""
"","","","","","html-keyboard-response","464","402025","0.0-3.0-3.111","","301","<p> Press S if the two images were the same, Press D if the two images were different. </p>","d","response","d","DNM"
"","","","","","image-keyboard-response","465","402236","0.0-3.0-0.112","","null","img_mproj/false/5.jpg","null","actual_stimuli_presentation_1","",""
"","","","","","html-keyboard-response","466","402550","0.0-3.0-1.112","","null","<div style=""font-size:60px;"">+</div>","null","fixation","",""
"","","","","","image-keyboard-response","467","402752","0.0-3.0-2.112","","null","img_mproj/false/5.jpg","null","actual_stimuli_presentation_2","",""
"","","","","","html-keyboard-response","468","403445","0.0-3.0-3.112","","693","<p> Press S if the two images were the same, Press D if the two images were different. </p>","s","response","s","SNP"
"","","","","","image-keyboard-response","469","403660","0.0-3.0-0.113","","null","img_mproj/Mjap/6.jpg","null","actual_stimuli_presentation_1","",""
"","","","","","html-keyboard-response","470","403961","0.0-3.0-1.113","","null","<div style=""font-size:60px;"">+</div>","null","fixation","",""
"","","","","","image-keyboard-response","471","404170","0.0-3.0-2.113","","null","img_mproj/Mjap/13.jpg","null","actual_stimuli_presentation_2","",""
"","","","","","html-keyboard-response","472","404713","0.0-3.0-3.113","","542","<p> Press S if the two images were the same, Press D if the two images were different. </p>","d","response","d","DMJ"
"","","","","","image-keyboard-response","473","404918","0.0-3.0-0.114","","null","img_mproj/Mfaces/12.jpg","null","actual_stimuli_presentation_1","",""
"","","","","","html-keyboard-response","474","405233","0.0-3.0-1.114","","null","<div style=""font-size:60px;"">+</div>","null","fixation","",""
"","","","","","image-keyboard-response","475","405434","0.0-3.0-2.114","","null","img_mproj/Mfaces/2.jpg","null","actual_stimuli_presentation_2","",""
"","","","","","html-keyboard-response","476","411539","0.0-3.0-3.114","","6104","<p> Press S if the two images were the same, Press D if the two images were different. </p>","d","response","d","DMM"
"","","","","","image-keyboard-response","477","411744","0.0-3.0-0.115","","null","img_mproj/false/6.jpg","null","actual_stimuli_presentation_1","",""
"","","","","","html-keyboard-response","478","412057","0.0-3.0-1.115","","null","<div style=""font-size:60px;"">+</div>","null","fixation","",""
"","","","","","image-keyboard-response","479","412271","0.0-3.0-2.115","","null","img_mproj/false/13.jpg","null","actual_stimuli_presentation_2","",""
"","","","","","html-keyboard-response","480","412567","0.0-3.0-3.115","","296","<p> Press S if the two images were the same, Press D if the two images were different. </p>","d","response","d","DNP"
"","","","","","image-keyboard-response","481","412771","0.0-3.0-0.116","","null","img_mproj/false/5.jpg","null","actual_stimuli_presentation_1","",""
"","","","","","html-keyboard-response","482","413084","0.0-3.0-1.116","","null","<div style=""font-size:60px;"">+</div>","null","fixation","",""
"","","","","","image-keyboard-response","483","413285","0.0-3.0-2.116","","null","img_mproj/Mfalse/5.jpg","null","actual_stimuli_presentation_2","",""
"","","","","","html-keyboard-response","484","413809","0.0-3.0-3.116","","524","<p> Press S if the two images were the same, Press D if the two images were different. </p>","s","response","s","SMP"
"","","","","","image-keyboard-response","485","414019","0.0-3.0-0.117","","null","img_mproj/Mfrench/13.jpg","null","actual_stimuli_presentation_1","",""
"","","","","","html-keyboard-response","486","414331","0.0-3.0-1.117","","null","<div style=""font-size:60px;"">+</div>","null","fixation","",""
"","","","","","image-keyboard-response","487","414541","0.0-3.0-2.117","","null","img_mproj/Mfrench/3.jpg","null","actual_stimuli_presentation_2","",""
"","","","","","html-keyboard-response","488","414839","0.0-3.0-3.117","","298","<p> Press S if the two images were the same, Press D if the two images were different. </p>","d","response","d","DMF"
"","","","","","image-keyboard-response","489","415055","0.0-3.0-0.118","","null","img_mproj/tools/9.jpg","null","actual_stimuli_presentation_1","",""
"","","","","","html-keyboard-response","490","415359","0.0-3.0-1.118","","null","<div style=""font-size:60px;"">+</div>","null","fixation","",""
"","","","","","image-keyboard-response","491","415562","0.0-3.0-2.118","","null","img_mproj/tools/9.jpg","null","actual_stimuli_presentation_2","",""
"","","","","","html-keyboard-response","492","416127","0.0-3.0-3.118","","564","<p> Press S if the two images were the same, Press D if the two images were different. </p>","s","response","s","SNT"
"","","","","","image-keyboard-response","493","416334","0.0-3.0-0.119","","null","img_mproj/false/2.jpg","null","actual_stimuli_presentation_1","",""
"","","","","","html-keyboard-response","494","416646","0.0-3.0-1.119","","null","<div style=""font-size:60px;"">+</div>","null","fixation","",""
"","","","","","image-keyboard-response","495","416849","0.0-3.0-2.119","","null","img_mproj/false/2.jpg","null","actual_stimuli_presentation_2","",""
"","","","","","html-keyboard-response","496","417263","0.0-3.0-3.119","","414","<p> Press S if the two images were the same, Press D if the two images were different. </p>","s","response","s","SNP"
"","","","","","image-keyboard-response","497","417473","0.0-3.0-0.120","","null","img_mproj/false/13.jpg","null","actual_stimuli_presentation_1","",""
"","","","","","html-keyboard-response","498","417779","0.0-3.0-1.120","","null","<div style=""font-size:60px;"">+</div>","null","fixation","",""
"","","","","","image-keyboard-response","499","417983","0.0-3.0-2.120","","null","img_mproj/false/13.jpg","null","actual_stimuli_presentation_2","",""
"","","","","","html-keyboard-response","500","418482","0.0-3.0-3.120","","498","<p> Press S if the two images were the same, Press D if the two images were different. </p>","s","response","s","SNP"
"","","","","","image-keyboard-response","501","418697","0.0-3.0-0.121","","null","img_mproj/Mtools/10.jpg","null","actual_stimuli_presentation_1","",""
"","","","","","html-keyboard-response","502","419007","0.0-3.0-1.121","","null","<div style=""font-size:60px;"">+</div>","null","fixation","",""
"","","","","","image-keyboard-response","503","419210","0.0-3.0-2.121","","null","img_mproj/Mtools/6.jpg","null","actual_stimuli_presentation_2","",""
"","","","","","html-keyboard-response","504","419646","0.0-3.0-3.121","","435","<p> Press S if the two images were the same, Press D if the two images were different. </p>","d","response","d","DMT"
"","","","","","image-keyboard-response","505","419849","0.0-3.0-0.122","","null","img_mproj/false/3.jpg","null","actual_stimuli_presentation_1","",""
"","","","","","html-keyboard-response","506","420160","0.0-3.0-1.122","","null","<div style=""font-size:60px;"">+</div>","null","fixation","",""
"","","","","","image-keyboard-response","507","420374","0.0-3.0-2.122","","null","img_mproj/false/11.jpg","null","actual_stimuli_presentation_2","",""
"","","","","","html-keyboard-response","508","421457","0.0-3.0-3.122","","1082","<p> Press S if the two images were the same, Press D if the two images were different. </p>","d","response","d","DNP"
"","","","","","image-keyboard-response","509","421671","0.0-3.0-0.123","","null","img_mproj/Mtools/12.jpg","null","actual_stimuli_presentation_1","",""
"","","","","","html-keyboard-response","510","421983","0.0-3.0-1.123","","null","<div style=""font-size:60px;"">+</div>","null","fixation","",""
"","","","","","image-keyboard-response","511","422194","0.0-3.0-2.123","","null","img_mproj/Mtools/2.jpg","null","actual_stimuli_presentation_2","",""
"","","","","","html-keyboard-response","512","422917","0.0-3.0-3.123","","723","<p> Press S if the two images were the same, Press D if the two images were different. </p>","d","response","d","DMT"
"","","","","","image-keyboard-response","513","423119","0.0-3.0-0.124","","null","img_mproj/faces/11.jpg","null","actual_stimuli_presentation_1","",""
"","","","","","html-keyboard-response","514","423432","0.0-3.0-1.124","","null","<div style=""font-size:60px;"">+</div>","null","fixation","",""
"","","","","","image-keyboard-response","515","423642","0.0-3.0-2.124","","null","img_mproj/faces/12.jpg","null","actual_stimuli_presentation_2","",""
"","","","","","html-keyboard-response","516","425293","0.0-3.0-3.124","","1651","<p> Press S if the two images were the same, Press D if the two images were different. </p>","d","response","d","DNM"
"","","","","","image-keyboard-response","517","425498","0.0-3.0-0.125","","null","img_mproj/tools/9.jpg","null","actual_stimuli_presentation_1","",""
"","","","","","html-keyboard-response","518","425809","0.0-3.0-1.125","","null","<div style=""font-size:60px;"">+</div>","null","fixation","",""
"","","","","","image-keyboard-response","519","426021","0.0-3.0-2.125","","null","img_mproj/tools/4.jpg","null","actual_stimuli_presentation_2","",""
"","","","","","html-keyboard-response","520","426849","0.0-3.0-3.125","","828","<p> Press S if the two images were the same, Press D if the two images were different. </p>","d","response","d","DNT"
"","","","","","image-keyboard-response","521","427059","0.0-3.0-0.126","","null","img_mproj/jap/5.jpg","null","actual_stimuli_presentation_1","",""
"","","","","","html-keyboard-response","522","427371","0.0-3.0-1.126","","null","<div style=""font-size:60px;"">+</div>","null","fixation","",""
"","","","","","image-keyboard-response","523","427587","0.0-3.0-2.126","","null","img_mproj/jap/5.jpg","null","actual_stimuli_presentation_2","",""
"","","","","","html-keyboard-response","524","428125","0.0-3.0-3.126","","538","<p> Press S if the two images were the same, Press D if the two images were different. </p>","s","response","s","SNJ"
"","","","","","image-keyboard-response","525","428342","0.0-3.0-0.127","","null","img_mproj/Mfaces/13.jpg","null","actual_stimuli_presentation_1","",""
"","","","","","html-keyboard-response","526","428652","0.0-3.0-1.127","","null","<div style=""font-size:60px;"">+</div>","null","fixation","",""
"","","","","","image-keyboard-response","527","428855","0.0-3.0-2.127","","null","img_mproj/Mfaces/3.jpg","null","actual_stimuli_presentation_2","",""
"","","","","","html-keyboard-response","528","429235","0.0-3.0-3.127","","380","<p> Press S if the two images were the same, Press D if the two images were different. </p>","d","response","d","DMM"
"","","","","","image-keyboard-response","529","429442","0.0-3.0-0.128","","null","img_mproj/french/14.jpg","null","actual_stimuli_presentation_1","",""
"","","","","","html-keyboard-response","530","429744","0.0-3.0-1.128","","null","<div style=""font-size:60px;"">+</div>","null","fixation","",""
"","","","","","image-keyboard-response","531","429947","0.0-3.0-2.128","","null","img_mproj/Mfrench/14.jpg","null","actual_stimuli_presentation_2","",""
"","","","","","html-keyboard-response","532","431041","0.0-3.0-3.128","","1094","<p> Press S if the two images were the same, Press D if the two images were different. </p>","d","response","s","SMF"
"","","","","","image-keyboard-response","533","431245","0.0-3.0-0.129","","null","img_mproj/jap/1.jpg","null","actual_stimuli_presentation_1","",""
"","","","","","html-keyboard-response","534","431555","0.0-3.0-1.129","","null","<div style=""font-size:60px;"">+</div>","null","fixation","",""
"","","","","","image-keyboard-response","535","431759","0.0-3.0-2.129","","null","img_mproj/jap/1.jpg","null","actual_stimuli_presentation_2","",""
"","","","","","html-keyboard-response","536","434373","0.0-3.0-3.129","","2613","<p> Press S if the two images were the same, Press D if the two images were different. </p>","d","response","s","SNJ"
"","","","","","image-keyboard-response","537","434589","0.0-3.0-0.130","","null","img_mproj/french/1.jpg","null","actual_stimuli_presentation_1","",""
"","","","","","html-keyboard-response","538","434902","0.0-3.0-1.130","","null","<div style=""font-size:60px;"">+</div>","null","fixation","",""
"","","","","","image-keyboard-response","539","435106","0.0-3.0-2.130","","null","img_mproj/french/13.jpg","null","actual_stimuli_presentation_2","",""
"","","","","","html-keyboard-response","540","435453","0.0-3.0-3.130","","347","<p> Press S if the two images were the same, Press D if the two images were different. </p>","d","response","d","DNF"
"","","","","","image-keyboard-response","541","435656","0.0-3.0-0.131","","null","img_mproj/false/2.jpg","null","actual_stimuli_presentation_1","",""
"","","","","","html-keyboard-response","542","435968","0.0-3.0-1.131","","null","<div style=""font-size:60px;"">+</div>","null","fixation","",""
"","","","","","image-keyboard-response","543","436178","0.0-3.0-2.131","","null","img_mproj/false/9.jpg","null","actual_stimuli_presentation_2","",""
"","","","","","html-keyboard-response","544","436571","0.0-3.0-3.131","","392","<p> Press S if the two images were the same, Press D if the two images were different. </p>","d","response","d","DNP"
"","","","","","image-keyboard-response","545","436785","0.0-3.0-0.132","","null","img_mproj/french/6.jpg","null","actual_stimuli_presentation_1","",""
"","","","","","html-keyboard-response","546","437098","0.0-3.0-1.132","","null","<div style=""font-size:60px;"">+</div>","null","fixation","",""
"","","","","","image-keyboard-response","547","437309","0.0-3.0-2.132","","null","img_mproj/Mfrench/6.jpg","null","actual_stimuli_presentation_2","",""
"","","","","","html-keyboard-response","548","437805","0.0-3.0-3.132","","496","<p> Press S if the two images were the same, Press D if the two images were different. </p>","s","response","s","SMF"
"","","","","","image-keyboard-response","549","438016","0.0-3.0-0.133","","null","img_mproj/Mfaces/4.jpg","null","actual_stimuli_presentation_1","",""
"","","","","","html-keyboard-response","550","438319","0.0-3.0-1.133","","null","<div style=""font-size:60px;"">+</div>","null","fixation","",""
"","","","","","image-keyboard-response","551","438521","0.0-3.0-2.133","","null","img_mproj/Mfaces/1.jpg","null","actual_stimuli_presentation_2","",""
"","","","","","html-keyboard-response","552","438858","0.0-3.0-3.133","","336","<p> Press S if the two images were the same, Press D if the two images were different. </p>","d","response","d","DMM"
"","","","","","image-keyboard-response","553","439067","0.0-3.0-0.134","","null","img_mproj/jap/14.jpg","null","actual_stimuli_presentation_1","",""
"","","","","","html-keyboard-response","554","439371","0.0-3.0-1.134","","null","<div style=""font-size:60px;"">+</div>","null","fixation","",""
"","","","","","image-keyboard-response","555","439574","0.0-3.0-2.134","","null","img_mproj/jap/14.jpg","null","actual_stimuli_presentation_2","",""
"","","","","","html-keyboard-response","556","439899","0.0-3.0-3.134","","324","<p> Press S if the two images were the same, Press D if the two images were different. </p>","s","response","s","SNJ"
"","","","","","image-keyboard-response","557","440105","0.0-3.0-0.135","","null","img_mproj/faces/4.jpg","null","actual_stimuli_presentation_1","",""
"","","","","","html-keyboard-response","558","440416","0.0-3.0-1.135","","null","<div style=""font-size:60px;"">+</div>","null","fixation","",""
"","","","","","image-keyboard-response","559","440620","0.0-3.0-2.135","","null","img_mproj/faces/1.jpg","null","actual_stimuli_presentation_2","",""
"","","","","","html-keyboard-response","560","440908","0.0-3.0-3.135","","288","<p> Press S if the two images were the same, Press D if the two images were different. </p>","d","response","d","DNM"
"","","","","","image-keyboard-response","561","441111","0.0-3.0-0.136","","null","img_mproj/tools/6.jpg","null","actual_stimuli_presentation_1","",""
"","","","","","html-keyboard-response","562","441415","0.0-3.0-1.136","","null","<div style=""font-size:60px;"">+</div>","null","fixation","",""
"","","","","","image-keyboard-response","563","441634","0.0-3.0-2.136","","null","img_mproj/tools/13.jpg","null","actual_stimuli_presentation_2","",""
"","","","","","html-keyboard-response","564","442201","0.0-3.0-3.136","","567","<p> Press S if the two images were the same, Press D if the two images were different. </p>","d","response","d","DNT"
"","","","","","image-keyboard-response","565","442408","0.0-3.0-0.137","","null","img_mproj/french/11.jpg","null","actual_stimuli_presentation_1","",""
"","","","","","html-keyboard-response","566","442719","0.0-3.0-1.137","","null","<div style=""font-size:60px;"">+</div>","null","fixation","",""
"","","","","","image-keyboard-response","567","442923","0.0-3.0-2.137","","null","img_mproj/french/11.jpg","null","actual_stimuli_presentation_2","",""
"","","","","","html-keyboard-response","568","443947","0.0-3.0-3.137","","1023","<p> Press S if the two images were the same, Press D if the two images were different. </p>","s","response","s","SNF"
"","","","","","image-keyboard-response","569","444159","0.0-3.0-0.138","","null","img_mproj/french/14.jpg","null","actual_stimuli_presentation_1","",""
"","","","","","html-keyboard-response","570","444475","0.0-3.0-1.138","","null","<div style=""font-size:60px;"">+</div>","null","fixation","",""
"","","","","","image-keyboard-response","571","444677","0.0-3.0-2.138","","null","img_mproj/french/12.jpg","null","actual_stimuli_presentation_2","",""
"","","","","","html-keyboard-response","572","445100","0.0-3.0-3.138","","422","<p> Press S if the two images were the same, Press D if the two images were different. </p>","d","response","d","DNF"
"","","","","","image-keyboard-response","573","445302","0.0-3.0-0.139","","null","img_mproj/tools/10.jpg","null","actual_stimuli_presentation_1","",""
"","","","","","html-keyboard-response","574","445614","0.0-3.0-1.139","","null","<div style=""font-size:60px;"">+</div>","null","fixation","",""
"","","","","","image-keyboard-response","575","445818","0.0-3.0-2.139","","null","img_mproj/tools/10.jpg","null","actual_stimuli_presentation_2","",""
"","","","","","html-keyboard-response","576","448641","0.0-3.0-3.139","","2823","<p> Press S if the two images were the same, Press D if the two images were different. </p>","d","response","s","SNT"
"","","","","","image-keyboard-response","577","448846","0.0-3.0-0.140","","null","img_mproj/tools/2.jpg","null","actual_stimuli_presentation_1","",""
"","","","","","html-keyboard-response","578","449158","0.0-3.0-1.140","","null","<div style=""font-size:60px;"">+</div>","null","fixation","",""
"","","","","","image-keyboard-response","579","449359","0.0-3.0-2.140","","null","img_mproj/tools/9.jpg","null","actual_stimuli_presentation_2","",""
"","","","","","html-keyboard-response","580","449929","0.0-3.0-3.140","","570","<p> Press S if the two images were the same, Press D if the two images were different. </p>","d","response","d","DNT"
"","","","","","image-keyboard-response","581","450131","0.0-3.0-0.141","","null","img_mproj/faces/5.jpg","null","actual_stimuli_presentation_1","",""
"","","","","","html-keyboard-response","582","450434","0.0-3.0-1.141","","null","<div style=""font-size:60px;"">+</div>","null","fixation","",""
"","","","","","image-keyboard-response","583","450636","0.0-3.0-2.141","","null","img_mproj/Mfaces/5.jpg","null","actual_stimuli_presentation_2","",""
"","","","","","html-keyboard-response","584","451013","0.0-3.0-3.141","","376","<p> Press S if the two images were the same, Press D if the two images were different. </p>","s","response","s","SMM"
"","","","","","image-keyboard-response","585","451229","0.0-3.0-0.142","","null","img_mproj/french/6.jpg","null","actual_stimuli_presentation_1","",""
"","","","","","html-keyboard-response","586","451537","0.0-3.0-1.142","","null","<div style=""font-size:60px;"">+</div>","null","fixation","",""
"","","","","","image-keyboard-response","587","451741","0.0-3.0-2.142","","null","img_mproj/french/6.jpg","null","actual_stimuli_presentation_2","",""
"","","","","","html-keyboard-response","588","452739","0.0-3.0-3.142","","997","<p> Press S if the two images were the same, Press D if the two images were different. </p>","s","response","s","SNF"
"","","","","","image-keyboard-response","589","452941","0.0-3.0-0.143","","null","img_mproj/Mfalse/11.jpg","null","actual_stimuli_presentation_1","",""
"","","","","","html-keyboard-response","590","453254","0.0-3.0-1.143","","null","<div style=""font-size:60px;"">+</div>","null","fixation","",""
"","","","","","image-keyboard-response","591","453464","0.0-3.0-2.143","","null","img_mproj/Mfalse/12.jpg","null","actual_stimuli_presentation_2","",""
"","","","","","html-keyboard-response","592","454226","0.0-3.0-3.143","","761","<p> Press S if the two images were the same, Press D if the two images were different. </p>","s","response","d","DMP"
"","","","","","image-keyboard-response","593","454429","0.0-3.0-0.144","","null","img_mproj/french/12.jpg","null","actual_stimuli_presentation_1","",""
"","","","","","html-keyboard-response","594","454742","0.0-3.0-1.144","","null","<div style=""font-size:60px;"">+</div>","null","fixation","",""
"","","","","","image-keyboard-response","595","454960","0.0-3.0-2.144","","null","img_mproj/french/12.jpg","null","actual_stimuli_presentation_2","",""
"","","","","","html-keyboard-response","596","455484","0.0-3.0-3.144","","523","<p> Press S if the two images were the same, Press D if the two images were different. </p>","s","response","s","SNF"
"","","","","","image-keyboard-response","597","455694","0.0-3.0-0.145","","null","img_mproj/tools/1.jpg","null","actual_stimuli_presentation_1","",""
"","","","","","html-keyboard-response","598","455996","0.0-3.0-1.145","","null","<div style=""font-size:60px;"">+</div>","null","fixation","",""
"","","","","","image-keyboard-response","599","456205","0.0-3.0-2.145","","null","img_mproj/Mtools/1.jpg","null","actual_stimuli_presentation_2","",""
"","","","","","html-keyboard-response","600","456743","0.0-3.0-3.145","","538","<p> Press S if the two images were the same, Press D if the two images were different. </p>","s","response","s","SMT"
"","","","","","image-keyboard-response","601","456947","0.0-3.0-0.146","","null","img_mproj/Mfalse/12.jpg","null","actual_stimuli_presentation_1","",""
"","","","","","html-keyboard-response","602","457253","0.0-3.0-1.146","","null","<div style=""font-size:60px;"">+</div>","null","fixation","",""
"","","","","","image-keyboard-response","603","457457","0.0-3.0-2.146","","null","img_mproj/Mfalse/2.jpg","null","actual_stimuli_presentation_2","",""
"","","","","","html-keyboard-response","604","458142","0.0-3.0-3.146","","685","<p> Press S if the two images were the same, Press D if the two images were different. </p>","d","response","d","DMP"
"","","","","","image-keyboard-response","605","458350","0.0-3.0-0.147","","null","img_mproj/jap/9.jpg","null","actual_stimuli_presentation_1","",""
"","","","","","html-keyboard-response","606","458660","0.0-3.0-1.147","","null","<div style=""font-size:60px;"">+</div>","null","fixation","",""
"","","","","","image-keyboard-response","607","458872","0.0-3.0-2.147","","null","img_mproj/jap/9.jpg","null","actual_stimuli_presentation_2","",""
"","","","","","html-keyboard-response","608","459515","0.0-3.0-3.147","","643","<p> Press S if the two images were the same, Press D if the two images were different. </p>","s","response","s","SNJ"
"","","","","","image-keyboard-response","609","459721","0.0-3.0-0.148","","null","img_mproj/jap/3.jpg","null","actual_stimuli_presentation_1","",""
"","","","","","html-keyboard-response","610","460033","0.0-3.0-1.148","","null","<div style=""font-size:60px;"">+</div>","null","fixation","",""
"","","","","","image-keyboard-response","611","460234","0.0-3.0-2.148","","null","img_mproj/jap/11.jpg","null","actual_stimuli_presentation_2","",""
"","","","","","html-keyboard-response","612","461135","0.0-3.0-3.148","","900","<p> Press S if the two images were the same, Press D if the two images were different. </p>","d","response","d","DNJ"
"","","","","","image-keyboard-response","613","461352","0.0-3.0-0.149","","null","img_mproj/tools/2.jpg","null","actual_stimuli_presentation_1","",""
