"success","timeout","failed_images","failed_audio","failed_video","trial_type","trial_index","time_elapsed","internal_node_id","view_history","rt","stimulus","response","task","correct_response","category"
"true","false","[]","[]","[]","preload","0","92","0.0-0.0","","","","","","",""
"","","","","","instructions","1","20354","0.0-1.0","[{""page_index"":0,""viewing_time"":6363},{""page_index"":1,""viewing_time"":5916},{""page_index"":2,""viewing_time"":5333},{""page_index"":3,""viewing_time"":2651}]","20262","","","","",""
"","","","","","image-keyboard-response","2","20557","0.0-2.0-0.0","","null","img_mproj/french/2.jpg","null","stimuli_presentation_1","",""
"","","","","","html-keyboard-response","3","20859","0.0-2.0-1.0","","null","<div style=""font-size:60px;"">+</div>","null","fixation","",""
"","","","","","image-keyboard-response","4","21061","0.0-2.0-2.0","","null","img_mproj/french/2.jpg","null","stimuli_presentation_2","",""
"","","","","","html-keyboard-response","5","21345","0.0-2.0-3.0","","282","<p> Press S if the two images were the same, Press D if the two images were different. </p>","s","response","s","SNF"
"","","","","","html-button-response","6","22905","0.0-2.0-4.0","","1559","<p>The two words were the same, with same orientation. The correct response was 'S'. Let us try another example. Click next to continue.</p>","0","After_trial_text","",""
"","","","","","image-keyboard-response","7","23107","0.0-2.0-0.1","","null","img_mproj/tools/2.jpg","null","stimuli_presentation_1","",""
"","","","","","html-keyboard-response","8","23408","0.0-2.0-1.1","","null","<div style=""font-size:60px;"">+</div>","null","fixation","",""
"","","","","","image-keyboard-response","9","23610","0.0-2.0-2.1","","null","img_mproj/Mtools/2.jpg","null","stimuli_presentation_2","",""
"","","","","","html-keyboard-response","10","24229","0.0-2.0-3.1","","619","<p> Press S if the two images were the same, Press D if the two images were different. </p>","s","response","s","SMT"
"","","","","","html-button-response","11","27053","0.0-2.0-4.1","","2823","<p>The two images were the same, but in different orientation. The correct response was 'S'. Let us try one last example. Click next to continue.</p>","0","After_trial_text","",""
"","","","","","image-keyboard-response","12","27256","0.0-2.0-0.2","","null","img_mproj/jap/1.jpg","null","stimuli_presentation_1","",""
"","","","","","html-keyboard-response","13","27558","0.0-2.0-1.2","","null","<div style=""font-size:60px;"">+</div>","null","fixation","",""
"","","","","","image-keyboard-response","14","27761","0.0-2.0-2.2","","null","img_mproj/jap/2.jpg","null","stimuli_presentation_2","",""
"","","","","","html-keyboard-response","15","27854","0.0-2.0-3.2","","92","<p> Press S if the two images were the same, Press D if the two images were different. </p>","d","response","d","DNT"
"","","","","","html-button-response","16","30170","0.0-2.0-4.2","","2315","<p>The two words/images were different. The correct response was 'D'. Click next to begin the task.</p>","0","After_trial_text","",""
"","","","","","image-keyboard-response","17","30372","0.0-3.0-0.0","","null","img_mproj/french/14.jpg","null","actual_stimuli_presentation_1","",""
"","","","","","html-keyboard-response","18","30673","0.0-3.0-1.0","","null","<div style=""font-size:60px;"">+</div>","null","fixation","",""
"","","","","","image-keyboard-response","19","30877","0.0-3.0-2.0","","null","img_mproj/french/1.jpg","null","actual_stimuli_presentation_2","",""
"","","","","","html-keyboard-response","20","31447","0.0-3.0-3.0","","570","<p> Press S if the two images were the same, Press D if the two images were different. </p>","d","response","d","DNF"
"","","","","","image-keyboard-response","21","31651","0.0-3.0-0.1","","null","img_mproj/Mtools/7.jpg","null","actual_stimuli_presentation_1","",""
"","","","","","html-keyboard-response","22","31952","0.0-3.0-1.1","","null","<div style=""font-size:60px;"">+</div>","null","fixation","",""
"","","","","","image-keyboard-response","23","32154","0.0-3.0-2.1","","null","img_mproj/Mtools/9.jpg","null","actual_stimuli_presentation_2","",""
"","","","","","html-keyboard-response","24","32878","0.0-3.0-3.1","","722","<p> Press S if the two images were the same, Press D if the two images were different. </p>","s","response","d","DMT"
"","","","","","image-keyboard-response","25","33084","0.0-3.0-0.2","","null","img_mproj/Mtools/1.jpg","null","actual_stimuli_presentation_1","",""
"","","","","","html-keyboard-response","26","33386","0.0-3.0-1.2","","null","<div style=""font-size:60px;"">+</div>","null","fixation","",""
"","","","","","image-keyboard-response","27","33588","0.0-3.0-2.2","","null","img_mproj/Mtools/7.jpg","null","actual_stimuli_presentation_2","",""
"","","","","","html-keyboard-response","28","34275","0.0-3.0-3.2","","686","<p> Press S if the two images were the same, Press D if the two images were different. </p>","d","response","d","DMT"
"","","","","","image-keyboard-response","29","34477","0.0-3.0-0.3","","null","img_mproj/tools/14.jpg","null","actual_stimuli_presentation_1","",""
"","","","","","html-keyboard-response","30","34779","0.0-3.0-1.3","","null","<div style=""font-size:60px;"">+</div>","null","fixation","",""
"","","","","","image-keyboard-response","31","34982","0.0-3.0-2.3","","null","img_mproj/Mtools/14.jpg","null","actual_stimuli_presentation_2","",""
"","","","","","html-keyboard-response","32","35557","0.0-3.0-3.3","","575","<p> Press S if the two images were the same, Press D if the two images were different. </p>","s","response","s","SMT"
"","","","","","image-keyboard-response","33","35760","0.0-3.0-0.4","","null","img_mproj/Mfaces/9.jpg","null","actual_stimuli_presentation_1","",""
"","","","","","html-keyboard-response","34","36062","0.0-3.0-1.4","","null","<div style=""font-size:60px;"">+</div>","null","fixation","",""
"","","","","","image-keyboard-response","35","36265","0.0-3.0-2.4","","null","img_mproj/Mfaces/3.jpg","null","actual_stimuli_presentation_2","",""
"","","","","","html-keyboard-response","36","36629","0.0-3.0-3.4","","363","<p> Press S if the two images were the same, Press D if the two images were different. </p>","d","response","d","DMM"
"","","","","","image-keyboard-response","37","36831","0.0-3.0-0.5","","null","img_mproj/Mjap/4.jpg","null","actual_stimuli_presentation_1","",""
"","","","","","html-keyboard-response","38","37133","0.0-3.0-1.5","","null","<div style=""font-size:60px;"">+</div>","null","fixation","",""
"","","","","","image-keyboard-response","39","37335","0.0-3.0-2.5","","null","img_mproj/Mjap/12.jpg","null","actual_stimuli_presentation_2","",""
"","","","","","html-keyboard-response","40","37936","0.0-3.0-3.5","","600","<p> Press S if the two images were the same, Press D if the two images were different. </p>","d","response","d","DMJ"
"","","","","","image-keyboard-response","41","38139","0.0-3.0-0.6","","null","img_mproj/tools/4.jpg","null","actual_stimuli_presentation_1","",""
"","","","","","html-keyboard-response","42","38440","0.0-3.0-1.6","","null","<div style=""font-size:60px;"">+</div>","null","fixation","",""
"","","","","","image-keyboard-response","43","38646","0.0-3.0-2.6","","null","img_mproj/tools/12.jpg","null","actual_stimuli_presentation_2","",""
"","","","","","html-keyboard-response","44","39072","0.0-3.0-3.6","","425","<p> Press S if the two images were the same, Press D if the two images were different. </p>","d","response","d","DNT"
"","","","","","image-keyboard-response","45","39275","0.0-3.0-0.7","","null","img_mproj/false/14.jpg","null","actual_stimuli_presentation_1","",""
"","","","","","html-keyboard-response","46","39577","0.0-3.0-1.7","","null","<div style=""font-size:60px;"">+</div>","null","fixation","",""
"","","","","","image-keyboard-response","47","39780","0.0-3.0-2.7","","null","img_mproj/Mfalse/14.jpg","null","actual_stimuli_presentation_2","",""
"","","","","","html-keyboard-response","48","40186","0.0-3.0-3.7","","406","<p> Press S if the two images were the same, Press D if the two images were different. </p>","d","response","s","SMP"
"","","","","","image-keyboard-response","49","40388","0.0-3.0-0.8","","null","img_mproj/faces/9.jpg","null","actual_stimuli_presentation_1","",""
"","","","","","html-keyboard-response","50","40689","0.0-3.0-1.8","","null","<div style=""font-size:60px;"">+</div>","null","fixation","",""
"","","","","","image-keyboard-response","51","40891","0.0-3.0-2.8","","null","img_mproj/faces/3.jpg","null","actual_stimuli_presentation_2","",""
"","","","","","html-keyboard-response","52","41989","0.0-3.0-3.8","","1097","<p> Press S if the two images were the same, Press D if the two images were different. </p>","d","response","d","DNM"
"","","","","","image-keyboard-response","53","42190","0.0-3.0-0.9","","null","img_mproj/false/1.jpg","null","actual_stimuli_presentation_1","",""
"","","","","","html-keyboard-response","54","42492","0.0-3.0-1.9","","null","<div style=""font-size:60px;"">+</div>","null","fixation","",""
"","","","","","image-keyboard-response","55","42696","0.0-3.0-2.9","","null","img_mproj/Mfalse/1.jpg","null","actual_stimuli_presentation_2","",""
"","","","","","html-keyboard-response","56","43227","0.0-3.0-3.9","","530","<p> Press S if the two images were the same, Press D if the two images were different. </p>","d","response","s","SMP"
"","","","","","image-keyboard-response","57","43429","0.0-3.0-0.10","","null","img_mproj/faces/6.jpg","null","actual_stimuli_presentation_1","",""
"","","","","","html-keyboard-response","58","43731","0.0-3.0-1.10","","null","<div style=""font-size:60px;"">+</div>","null","fixation","",""
"","","","","","image-keyboard-response","59","43934","0.0-3.0-2.10","","null","img_mproj/Mfaces/6.jpg","null","actual_stimuli_presentation_2","",""
"","","","","","html-keyboard-response","60","44344","0.0-3.0-3.10","","410","<p> Press S if the two images were the same, Press D if the two images were different. </p>","s","response","s","SMM"
"","","","","","image-keyboard-response","61","44547","0.0-3.0-0.11","","null","img_mproj/french/11.jpg","null","actual_stimuli_presentation_1","",""
"","","","","","html-keyboard-response","62","44848","0.0-3.0-1.11","","null","<div style=""font-size:60px;"">+</div>","null","fixation","",""
"","","","","","image-keyboard-response","63","45050","0.0-3.0-2.11","","null","img_mproj/french/11.jpg","null","actual_stimuli_presentation_2","",""
"","","","","","html-keyboard-response","64","45424","0.0-3.0-3.11","","373","<p> Press S if the two images were the same, Press D if the two images were different. </p>","s","response","s","SNF"
"","","","","","image-keyboard-response","65","45626","0.0-3.0-0.12","","null","img_mproj/faces/5.jpg","null","actual_stimuli_presentation_1","",""
"","","","","","html-keyboard-response","66","45927","0.0-3.0-1.12","","null","<div style=""font-size:60px;"">+</div>","null","fixation","",""
"","","","","","image-keyboard-response","67","46131","0.0-3.0-2.12","","null","img_mproj/Mfaces/5.jpg","null","actual_stimuli_presentation_2","",""
"","","","","","html-keyboard-response","68","47165","0.0-3.0-3.12","","1033","<p> Press S if the two images were the same, Press D if the two images were different. </p>","s","response","s","SMM"
"","","","","","image-keyboard-response","69","47370","0.0-3.0-0.13","","null","img_mproj/faces/1.jpg","null","actual_stimuli_presentation_1","",""
"","","","","","html-keyboard-response","70","47672","0.0-3.0-1.13","","null","<div style=""font-size:60px;"">+</div>","null","fixation","",""
"","","","","","image-keyboard-response","71","47873","0.0-3.0-2.13","","null","img_mproj/faces/7.jpg","null","actual_stimuli_presentation_2","",""
"","","","","","html-keyboard-response","72","48501","0.0-3.0-3.13","","628","<p> Press S if the two images were the same, Press D if the two images were different. </p>","d","response","d","DNM"
"","","","","","image-keyboard-response","73","48702","0.0-3.0-0.14","","null","img_mproj/faces/11.jpg","null","actual_stimuli_presentation_1","",""
"","","","","","html-keyboard-response","74","49003","0.0-3.0-1.14","","null","<div style=""font-size:60px;"">+</div>","null","fixation","",""
"","","","","","image-keyboard-response","75","49206","0.0-3.0-2.14","","null","img_mproj/faces/11.jpg","null","actual_stimuli_presentation_2","",""
"","","","","","html-keyboard-response","76","49829","0.0-3.0-3.14","","623","<p> Press S if the two images were the same, Press D if the two images were different. </p>","s","response","s","SNM"
"","","","","","image-keyboard-response","77","50030","0.0-3.0-0.15","","null","img_mproj/french/4.jpg","null","actual_stimuli_presentation_1","",""
"","","","","","html-keyboard-response","78","50332","0.0-3.0-1.15","","null","<div style=""font-size:60px;"">+</div>","null","fixation","",""
"","","","","","image-keyboard-response","79","50535","0.0-3.0-2.15","","null","img_mproj/french/12.jpg","null","actual_stimuli_presentation_2","",""
"","","","","","html-keyboard-response","80","51392","0.0-3.0-3.15","","856","<p> Press S if the two images were the same, Press D if the two images were different. </p>","d","response","d","DNF"
"","","","","","image-keyboard-response","81","51594","0.0-3.0-0.16","","null","img_mproj/french/6.jpg","null","actual_stimuli_presentation_1","",""
"","","","","","html-keyboard-response","82","51896","0.0-3.0-1.16","","null","<div style=""font-size:60px;"">+</div>","null","fixation","",""
"","","","","","image-keyboard-response","83","52098","0.0-3.0-2.16","","null","img_mproj/french/14.jpg","null","actual_stimuli_presentation_2","",""
"","","","","","html-keyboard-response","84","52774","0.0-3.0-3.16","","675","<p> Press S if the two images were the same, Press D if the two images were different. </p>","s","response","d","DNF"
"","","","","","image-keyboard-response","85","52976","0.0-3.0-0.17","","null","img_mproj/Mfrench/8.jpg","null","actual_stimuli_presentation_1","",""
"","","","","","html-keyboard-response","86","53277","0.0-3.0-1.17","","null","<div style=""font-size:60px;"">+</div>","null","fixation","",""
"","","","","","image-keyboard-response","87","53480","0.0-3.0-2.17","","null","img_mproj/Mfrench/2.jpg","null","actual_stimuli_presentation_2","",""
"","","","","","html-keyboard-response","88","54250","0.0-3.0-3.17","","769","<p> Press S if the two images were the same, Press D if the two images were different. </p>","s","response","d","DMF"
"","","","","","image-keyboard-response","89","54452","0.0-3.0-0.18","","null","img_mproj/tools/7.jpg","null","actual_stimuli_presentation_1","",""
"","","","","","html-keyboard-response","90","54753","0.0-3.0-1.18","","null","<div style=""font-size:60px;"">+</div>","null","fixation","",""
"","","","","","image-keyboard-response","91","54956","0.0-3.0-2.18","","null","img_mproj/Mtools/7.jpg","null","actual_stimuli_presentation_2","",""
"","","","","","html-keyboard-response","92","56030","0.0-3.0-3.18","","1073","<p> Press S if the two images were the same, Press D if the two images were different. </p>","s","response","s","SMT"
"","","","","","image-keyboard-response","93","56235","0.0-3.0-0.19","","null","img_mproj/Mfalse/5.jpg","null","actual_stimuli_presentation_1","",""
"","","","","","html-keyboard-response","94","56538","0.0-3.0-1.19","","null","<div style=""font-size:60px;"">+</div>","null","fixation","",""
"","","","","","image-keyboard-response","95","56740","0.0-3.0-2.19","","null","img_mproj/Mfalse/10.jpg","null","actual_stimuli_presentation_2","",""
"","","","","","html-keyboard-response","96","57215","0.0-3.0-3.19","","474","<p> Press S if the two images were the same, Press D if the two images were different. </p>","d","response","d","DMP"
"","","","","","image-keyboard-response","97","57417","0.0-3.0-0.20","","null","img_mproj/tools/2.jpg","null","actual_stimuli_presentation_1","",""
"","","","","","html-keyboard-response","98","57718","0.0-3.0-1.20","","null","<div style=""font-size:60px;"">+</div>","null","fixation","",""
"","","","","","image-keyboard-response","99","57921","0.0-3.0-2.20","","null","img_mproj/tools/2.jpg","null","actual_stimuli_presentation_2","",""
"","","","","","html-keyboard-response","100","58273","0.0-3.0-3.20","","352","<p> Press S if the two images were the same, Press D if the two images were different. </p>","s","response","s","SNT"
"","","","","","image-keyboard-response","101","58475","0.0-3.0-0.21","","null","img_mproj/Mfrench/5.jpg","null","actual_stimuli_presentation_1","",""
"","","","","","html-keyboard-response","102","58776","0.0-3.0-1.21","","null","<div style=""font-size:60px;"">+</div>","null","fixation","",""
"","","","","","image-keyboard-response","103","58978","0.0-3.0-2.21","","null","img_mproj/Mfrench/10.jpg","null","actual_stimuli_presentation_2","",""
"","","","","","html-keyboard-response","104","59429","0.0-3.0-3.21","","450","<p> Press S if the two images were the same, Press D if the two images were different. </p>","d","response","d","DMF"
"","","","","","image-keyboard-response","105","59632","0.0-3.0-0.22","","null","img_mproj/tools/11.jpg","null","actual_stimuli_presentation_1","",""
"","","","","","html-keyboard-response","106","59934","0.0-3.0-1.22","","null","<div style=""font-size:60px;"">+</div>","null","fixation","",""
"","","","","","image-keyboard-response","107","60137","0.0-3.0-2.22","","null","img_mproj/tools/4.jpg","null","actual_stimuli_presentation_2","",""
"","","","","","html-keyboard-response","108","60904","0.0-3.0-3.22","","766","<p> Press S if the two images were the same, Press D if the two images were different. </p>","d","response","d","DNT"
"","","","","","image-keyboard-response","109","61106","0.0-3.0-0.23","","null","img_mproj/faces/12.jpg","null","actual_stimuli_presentation_1","",""
"","","","","","html-keyboard-response","110","61408","0.0-3.0-1.23","","null","<div style=""font-size:60px;"">+</div>","null","fixation","",""
"","","","","","image-keyboard-response","111","61609","0.0-3.0-2.23","","null","img_mproj/Mfaces/12.jpg","null","actual_stimuli_presentation_2","",""
"","","","","","html-keyboard-response","112","62029","0.0-3.0-3.23","","419","<p> Press S if the two images were the same, Press D if the two images were different. </p>","s","response","s","SMM"
"","","","","","image-keyboard-response","113","62231","0.0-3.0-0.24","","null","img_mproj/french/2.jpg","null","actual_stimuli_presentation_1","",""
"","","","","","html-keyboard-response","114","62532","0.0-3.0-1.24","","null","<div style=""font-size:60px;"">+</div>","null","fixation","",""
"","","","","","image-keyboard-response","115","62734","0.0-3.0-2.24","","null","img_mproj/french/14.jpg","null","actual_stimuli_presentation_2","",""
"","","","","","html-keyboard-response","116","63606","0.0-3.0-3.24","","872","<p> Press S if the two images were the same, Press D if the two images were different. </p>","d","response","d","DNF"
"","","","","","image-keyboard-response","117","63809","0.0-3.0-0.25","","null","img_mproj/false/5.jpg","null","actual_stimuli_presentation_1","",""
"","","","","","html-keyboard-response","118","64111","0.0-3.0-1.25","","null","<div style=""font-size:60px;"">+</div>","null","fixation","",""
"","","","","","image-keyboard-response","119","64313","0.0-3.0-2.25","","null","img_mproj/false/5.jpg","null","actual_stimuli_presentation_2","",""
"","","","","","html-keyboard-response","120","64838","0.0-3.0-3.25","","524","<p> Press S if the two images were the same, Press D if the two images were different. </p>","s","response","s","SNP"
"","","","","","image-keyboard-response","121","65040","0.0-3.0-0.26","","null","img_mproj/jap/14.jpg","null","actual_stimuli_presentation_1","",""
"","","","","","html-keyboard-response","122","65341","0.0-3.0-1.26","","null","<div style=""font-size:60px;"">+</div>","null","fixation","",""
"","","","","","image-keyboard-response","123","65544","0.0-3.0-2.26","","null","img_mproj/jap/14.jpg","null","actual_stimuli_presentation_2","",""
"","","","","","html-keyboard-response","124","66089","0.0-3.0-3.26","","545","<p> Press S if the two images were the same, Press D if the two images were different. </p>","s","response","s","SNJ"
"","","","","","image-keyboard-response","125","66295","0.0-3.0-0.27","","null","img_mproj/tools/5.jpg","null","actual_stimuli_presentation_1","",""
"","","","","","html-keyboard-response","126","66597","0.0-3.0-1.27","","null","<div style=""font-size:60px;"">+</div>","null","fixation","",""
"","","","","","image-keyboard-response","127","66799","0.0-3.0-2.27","","null","img_mproj/Mtools/5.jpg","null","actual_stimuli_presentation_2","",""
"","","","","","html-keyboard-response","128","67422","0.0-3.0-3.27","","623","<p> Press S if the two images were the same, Press D if the two images were different. </p>","s","response","s","SMT"
"","","","","","image-keyboard-response","129","67625","0.0-3.0-0.28","","null","img_mproj/Mjap/5.jpg","null","actual_stimuli_presentation_1","",""
"","","","","","html-keyboard-response","130","67927","0.0-3.0-1.28","","null","<div style=""font-size:60px;"">+</div>","null","fixation","",""
"","","","","","image-keyboard-response","131","68130","0.0-3.0-2.28","","null","img_mproj/Mjap/10.jpg","null","actual_stimuli_presentation_2","",""
"","","","","","html-keyboard-response","132","68821","0.0-3.0-3.28","","691","<p> Press S if the two images were the same, Press D if the two images were different. </p>","d","response","d","DMJ"
"","","","","","image-keyboard-response","133","69024","0.0-3.0-0.29","","null","img_mproj/french/2.jpg","null","actual_stimuli_presentation_1","",""
"","","","","","html-keyboard-response","134","69325","0.0-3.0-1.29","","null","<div style=""font-size:60px;"">+</div>","null","fixation","",""
"","","","","","image-keyboard-response","135","69532","0.0-3.0-2.29","","null","img_mproj/Mfrench/2.jpg","null","actual_stimuli_presentation_2","",""
"","","","","","html-keyboard-response","136","70226","0.0-3.0-3.29","","694","<p> Press S if the two images were the same, Press D if the two images were different. </p>","s","response","s","SMF"
"","","","","","image-keyboard-response","137","70429","0.0-3.0-0.30","","null","img_mproj/jap/4.jpg","null","actual_stimuli_presentation_1","",""
"","","","","","html-keyboard-response","138","70731","0.0-3.0-1.30","","null","<div style=""font-size:60px;"">+</div>","null","fixation","",""
"","","","","","image-keyboard-response","139","70934","0.0-3.0-2.30","","null","img_mproj/jap/12.jpg","null","actual_stimuli_presentation_2","",""
"","","","","","html-keyboard-response","140","72640","0.0-3.0-3.30","","1706","<p> Press S if the two images were the same, Press D if the two images were different. </p>","d","response","d","DNJ"
"","","","","","image-keyboard-response","141","72841","0.0-3.0-0.31","","null","img_mproj/false/7.jpg","null","actual_stimuli_presentation_1","",""
"","","","","","html-keyboard-response","142","73143","0.0-3.0-1.31","","null","<div style=""font-size:60px;"">+</div>","null","fixation","",""
"","","","","","image-keyboard-response","143","73346","0.0-3.0-2.31","","null","img_mproj/false/9.jpg","null","actual_stimuli_presentation_2","",""
"","","","","","html-keyboard-response","144","73869","0.0-3.0-3.31","","522","<p> Press S if the two images were the same, Press D if the two images were different. </p>","d","response","d","DNP"
"","","","","","image-keyboard-response","145","74071","0.0-3.0-0.32","","null","img_mproj/jap/2.jpg","null","actual_stimuli_presentation_1","",""
"","","","","","html-keyboard-response","146","74373","0.0-3.0-1.32","","null","<div style=""font-size:60px;"">+</div>","null","fixation","",""
"","","","","","image-keyboard-response","147","74575","0.0-3.0-2.32","","null","img_mproj/Mjap/2.jpg","null","actual_stimuli_presentation_2","",""
"","","","","","html-keyboard-response","148","75032","0.0-3.0-3.32","","457","<p> Press S if the two images were the same, Press D if the two images were different. </p>","s","response","s","SMJ"
"","","","","","image-keyboard-response","149","75234","0.0-3.0-0.33","","null","img_mproj/jap/3.jpg","null","actual_stimuli_presentation_1","",""
"","","","","","html-keyboard-response","150","75535","0.0-3.0-1.33","","null","<div style=""font-size:60px;"">+</div>","null","fixation","",""
"","","","","","image-keyboard-response","151","75738","0.0-3.0-2.33","","null","img_mproj/Mjap/3.jpg","null","actual_stimuli_presentation_2","",""
"","","","","","html-keyboard-response","152","76564","0.0-3.0-3.33","","826","<p> Press S if the two images were the same, Press D if the two images were different. </p>","s","response","s","SMJ"
"","","","","","image-keyboard-response","153","76766","0.0-3.0-0.34","","null","img_mproj/french/7.jpg","null","actual_stimuli_presentation_1","",""
"","","","","","html-keyboard-response","154","77068","0.0-3.0-1.34","","null","<div style=""font-size:60px;"">+</div>","null","fixation","",""
"","","","","","image-keyboard-response","155","77271","0.0-3.0-2.34","","null","img_mproj/french/7.jpg","null","actual_stimuli_presentation_2","",""
"","","","","","html-keyboard-response","156","77634","0.0-3.0-3.34","","362","<p> Press S if the two images were the same, Press D if the two images were different. </p>","s","response","s","SNF"
"","","","","","image-keyboard-response","157","77837","0.0-3.0-0.35","","null","img_mproj/Mfrench/1.jpg","null","actual_stimuli_presentation_1","",""
"","","","","","html-keyboard-response","158","78139","0.0-3.0-1.35","","null","<div style=""font-size:60px;"">+</div>","null","fixation","",""
"","","","","","image-keyboard-response","159","78345","0.0-3.0-2.35","","null","img_mproj/Mfrench/7.jpg","null","actual_stimuli_presentation_2","",""
"","","","","","html-keyboard-response","160","79813","0.0-3.0-3.35","","1467","<p> Press S if the two images were the same, Press D if the two images were different. </p>","s","response","d","DMF"
"","","","","","image-keyboard-response","161","80015","0.0-3.0-0.36","","null","img_mproj/tools/5.jpg","null","actual_stimuli_presentation_1","",""
"","","","","","html-keyboard-response","162","80316","0.0-3.0-1.36","","null","<div style=""font-size:60px;"">+</div>","null","fixation","",""
"","","","","","image-keyboard-response","163","80519","0.0-3.0-2.36","","null","img_mproj/tools/5.jpg","null","actual_stimuli_presentation_2","",""
"","","","","","html-keyboard-response","164","81553","0.0-3.0-3.36","","1034","<p> Press S if the two images were the same, Press D if the two images were different. </p>","s","response","s","SNT"
"","","","","","image-keyboard-response","165","81756","0.0-3.0-0.37","","null","img_mproj/jap/9.jpg","null","actual_stimuli_presentation_1","",""
"","","","","","html-keyboard-response","166","82057","0.0-3.0-1.37","","null","<div style=""font-size:60px;"">+</div>","null","fixation","",""
"","","","","","image-keyboard-response","167","82260","0.0-3.0-2.37","","null","img_mproj/jap/3.jpg","null","actual_stimuli_presentation_2","",""
"","","","","","html-keyboard-response","168","82654","0.0-3.0-3.37","","393","<p> Press S if the two images were the same, Press D if the two images were different. </p>","d","response","d","DNJ"
"","","","","","image-keyboard-response","169","82859","0.0-3.0-0.38","","null","img_mproj/french/1.jpg","null","actual_stimuli_presentation_1","",""
"","","","","","html-keyboard-response","170","83161","0.0-3.0-1.38","","null","<div style=""font-size:60px;"">+</div>","null","fixation","",""
"","","","","","image-keyboard-response","171","83364","0.0-3.0-2.38","","null","img_mproj/french/1.jpg","null","actual_stimuli_presentation_2","",""
"","","","","","html-keyboard-response","172","83838","0.0-3.0-3.38","","474","<p> Press S if the two images were the same, Press D if the two images were different. </p>","s","response","s","SNF"
"","","","","","image-keyboard-response","173","84041","0.0-3.0-0.39","","null","img_mproj/Mjap/13.jpg","null","actual_stimuli_presentation_1","",""
"","","","","","html-keyboard-response","174","84342","0.0-3.0-1.39","","null","<div style=""font-size:60px;"">+</div>","null","fixation","",""
"","","","","","image-keyboard-response","175","84543","0.0-3.0-2.39","","null","img_mproj/Mjap/9.jpg","null","actual_stimuli_presentation_2","",""
"","","","","","html-keyboard-response","176","85349","0.0-3.0-3.39","","805","<p> Press S if the two images were the same, Press D if the two images were different. </p>","d","response","d","DMJ"
"","","","","","image-keyboard-response","177","85551","0.0-3.0-0.40","","null","img_mproj/french/3.jpg","null","actual_stimuli_presentation_1","",""
"","","","","","html-keyboard-response","178","85852","0.0-3.0-1.40","","null","<div style=""font-size:60px;"">+</div>","null","fixation","",""
"","","","","","image-keyboard-response","179","86055","0.0-3.0-2.40","","null","img_mproj/Mfrench/3.jpg","null","actual_stimuli_presentation_2","",""
"","","","","","html-keyboard-response","180","86573","0.0-3.0-3.40","","517","<p> Press S if the two images were the same, Press D if the two images were different. </p>","s","response","s","SMF"
"","","","","","image-keyboard-response","181","86776","0.0-3.0-0.41","","null","img_mproj/false/7.jpg","null","actual_stimuli_presentation_1","",""
"","","","","","html-keyboard-response","182","87078","0.0-3.0-1.41","","null","<div style=""font-size:60px;"">+</div>","null","fixation","",""
"","","","","","image-keyboard-response","183","87280","0.0-3.0-2.41","","null","img_mproj/Mfalse/7.jpg","null","actual_stimuli_presentation_2","",""
"","","","","","html-keyboard-response","184","88647","0.0-3.0-3.41","","1366","<p> Press S if the two images were the same, Press D if the two images were different. </p>","d","response","s","SMP"
"","","","","","image-keyboard-response","185","88850","0.0-3.0-0.42","","null","img_mproj/faces/13.jpg","null","actual_stimuli_presentation_1","",""
"","","","","","html-keyboard-response","186","89151","0.0-3.0-1.42","","null","<div style=""font-size:60px;"">+</div>","null","fixation","",""
"","","","","","image-keyboard-response","187","89354","0.0-3.0-2.42","","null","img_mproj/faces/9.jpg","null","actual_stimuli_presentation_2","",""
"","","","","","html-keyboard-response","188","90178","0.0-3.0-3.42","","823","<p> Press S if the two images were the same, Press D if the two images were different. </p>","d","response","d","DNM"
"","","","","","image-keyboard-response","189","90380","0.0-3.0-0.43","","null","img_mproj/false/14.jpg","null","actual_stimuli_presentation_1","",""
"","","","","","html-keyboard-response","190","90681","0.0-3.0-1.43","","null","<div style=""font-size:60px;"">+</div>","null","fixation","",""
"","","","","","image-keyboard-response","191","90884","0.0-3.0-2.43","","null","img_mproj/false/14.jpg","null","actual_stimuli_presentation_2","",""
"","","","","","html-keyboard-response","192","91908","0.0-3.0-3.43","","1023","<p> Press S if the two images were the same, Press D if the two images were different. </p>","s","response","s","SNP"
"","","","","","image-keyboard-response","193","92110","0.0-3.0-0.44","","null","img_mproj/tools/5.jpg","null","actual_stimuli_presentation_1","",""
"","","","","","html-keyboard-response","194","92412","0.0-3.0-1.44","","null","<div style=""font-size:60px;"">+</div>","null","fixation","",""
"","","","","","image-keyboard-response","195","92614","0.0-3.0-2.44","","null","img_mproj/tools/10.jpg","null","actual_stimuli_presentation_2","",""
"","","","","","html-keyboard-response","196","93276","0.0-3.0-3.44","","661","<p> Press S if the two images were the same, Press D if the two images were different. </p>","d","response","d","DNT"
"","","","","","image-keyboard-response","197","93478","0.0-3.0-0.45","","null","img_mproj/jap/12.jpg","null","actual_stimuli_presentation_1","",""
"","","","","","html-keyboard-response","198","93779","0.0-3.0-1.45","","null","<div style=""font-size:60px;"">+</div>","null","fixation","",""
"","","","","","image-keyboard-response","199","93982","0.0-3.0-2.45","","null","img_mproj/Mjap/12.jpg","null","actual_stimuli_presentation_2","",""
"","","","","","html-keyboard-response","200","94547","0.0-3.0-3.45","","564","<p> Press S if the two images were the same, Press D if the two images were different. </p>","s","response","s","SMJ"
"","","","","","image-keyboard-response","201","94750","0.0-3.0-0.46","","null","img_mproj/french/11.jpg","null","actual_stimuli_presentation_1","",""
"","","","","","html-keyboard-response","202","95051","0.0-3.0-1.46","","null","<div style=""font-size:60px;"">+</div>","null","fixation","",""
"","","","","","image-keyboard-response","203","95254","0.0-3.0-2.46","","null","img_mproj/Mfrench/11.jpg","null","actual_stimuli_presentation_2","",""
"","","","","","html-keyboard-response","204","95839","0.0-3.0-3.46","","585","<p> Press S if the two images were the same, Press D if the two images were different. </p>","s","response","s","SMF"
"","","","","","image-keyboard-response","205","96041","0.0-3.0-0.47","","null","img_mproj/jap/13.jpg","null","actual_stimuli_presentation_1","",""
"","","","","","html-keyboard-response","206","96344","0.0-3.0-1.47","","null","<div style=""font-size:60px;"">+</div>","null","fixation","",""
"","","","","","image-keyboard-response","207","96550","0.0-3.0-2.47","","null","img_mproj/jap/13.jpg","null","actual_stimuli_presentation_2","",""
"","","","","","html-keyboard-response","208","96945","0.0-3.0-3.47","","394","<p> Press S if the two images were the same, Press D if the two images were different. </p>","s","response","s","SNJ"
"","","","","","image-keyboard-response","209","97148","0.0-3.0-0.48","","null","img_mproj/jap/6.jpg","null","actual_stimuli_presentation_1","",""
"","","","","","html-keyboard-response","210","97449","0.0-3.0-1.48","","null","<div style=""font-size:60px;"">+</div>","null","fixation","",""
"","","","","","image-keyboard-response","211","97651","0.0-3.0-2.48","","null","img_mproj/jap/14.jpg","null","actual_stimuli_presentation_2","",""
"","","","","","html-keyboard-response","212","98035","0.0-3.0-3.48","","383","<p> Press S if the two images were the same, Press D if the two images were different. </p>","d","response","d","DNJ"
"","","","","","image-keyboard-response","213","98238","0.0-3.0-0.49","","null","img_mproj/Mfalse/13.jpg","null","actual_stimuli_presentation_1","",""
"","","","","","html-keyboard-response","214","98540","0.0-3.0-1.49","","null","<div style=""font-size:60px;"">+</div>","null","fixation","",""
"","","","","","image-keyboard-response","215","98747","0.0-3.0-2.49","","null","img_mproj/Mfalse/9.jpg","null","actual_stimuli_presentation_2","",""
"","","","","","html-keyboard-response","216","99680","0.0-3.0-3.49","","932","<p> Press S if the two images were the same, Press D if the two images were different. </p>","d","response","d","DMP"
"","","","","","image-keyboard-response","217","99882","0.0-3.0-0.50","","null","img_mproj/false/4.jpg","null","actual_stimuli_presentation_1","",""
"","","","","","html-keyboard-response","218","100183","0.0-3.0-1.50","","null","<div style=""font-size:60px;"">+</div>","null","fixation","",""
"","","","","","image-keyboard-response","219","100385","0.0-3.0-2.50","","null","img_mproj/false/4.jpg","null","actual_stimuli_presentation_2","",""
"","","","","","html-keyboard-response","220","100809","0.0-3.0-3.50","","423","<p> Press S if the two images were the same, Press D if the two images were different. </p>","s","response","s","SNP"
"","","","","","image-keyboard-response","221","101012","0.0-3.0-0.51","","null","img_mproj/Mfalse/4.jpg","null","actual_stimuli_presentation_1","",""
"","","","","","html-keyboard-response","222","101314","0.0-3.0-1.51","","null","<div style=""font-size:60px;"">+</div>","null","fixation","",""
"","","","","","image-keyboard-response","223","101519","0.0-3.0-2.51","","null","img_mproj/Mfalse/12.jpg","null","actual_stimuli_presentation_2","",""
"","","","","","html-keyboard-response","224","101939","0.0-3.0-3.51","","420","<p> Press S if the two images were the same, Press D if the two images were different. </p>","d","response","d","DMP"
"","","","","","image-keyboard-response","225","102142","0.0-3.0-0.52","","null","img_mproj/false/2.jpg","null","actual_stimuli_presentation_1","",""
"","","","","","html-keyboard-response","226","102442","0.0-3.0-1.52","","null","<div style=""font-size:60px;"">+</div>","null","fixation","",""
"","","","","","image-keyboard-response","227","102644","0.0-3.0-2.52","","null","img_mproj/false/14.jpg","null","actual_stimuli_presentation_2","",""
"","","","","","html-keyboard-response","228","103601","0.0-3.0-3.52","","956","<p> Press S if the two images were the same, Press D if the two images were different. </p>","d","response","d","DNP"
"","","","","","image-keyboard-response","229","103803","0.0-3.0-0.53","","null","img_mproj/Mjap/8.jpg","null","actual_stimuli_presentation_1","",""
"","","","","","html-keyboard-response","230","104105","0.0-3.0-1.53","","null","<div style=""font-size:60px;"">+</div>","null","fixation","",""
"","","","","","image-keyboard-response","231","104309","0.0-3.0-2.53","","null","img_mproj/Mjap/2.jpg","null","actual_stimuli_presentation_2","",""
"","","","","","html-keyboard-response","232","105292","0.0-3.0-3.53","","982","<p> Press S if the two images were the same, Press D if the two images were different. </p>","d","response","d","DMJ"
"","","","","","image-keyboard-response","233","105493","0.0-3.0-0.54","","null","img_mproj/faces/8.jpg","null","actual_stimuli_presentation_1","",""
"","","","","","html-keyboard-response","234","105795","0.0-3.0-1.54","","null","<div style=""font-size:60px;"">+</div>","null","fixation","",""
"","","","","","image-keyboard-response","235","105998","0.0-3.0-2.54","","null","img_mproj/faces/2.jpg","null","actual_stimuli_presentation_2","",""
"","","","","","html-keyboard-response","236","106625","0.0-3.0-3.54","","627","<p> Press S if the two images were the same, Press D if the two images were different. </p>","s","response","d","DNM"
"","","","","","image-keyboard-response","237","106827","0.0-3.0-0.55","","null","img_mproj/false/8.jpg","null","actual_stimuli_presentation_1","",""
"","","","","","html-keyboard-response","238","107128","0.0-3.0-1.55","","null","<div style=""font-size:60px;"">+</div>","null","fixation","",""
"","","","","","image-keyboard-response","239","107331","0.0-3.0-2.55","","null","img_mproj/false/2.jpg","null","actual_stimuli_presentation_2","",""
"","","","","","html-keyboard-response","240","108387","0.0-3.0-3.55","","1055","<p> Press S if the two images were the same, Press D if the two images were different. </p>","d","response","d","DNP"
"","","","","","image-keyboard-response","241","108591","0.0-3.0-0.56","","null","img_mproj/Mfrench/13.jpg","null","actual_stimuli_presentation_1","",""
"","","","","","html-keyboard-response","242","108893","0.0-3.0-1.56","","null","<div style=""font-size:60px;"">+</div>","null","fixation","",""
"","","","","","image-keyboard-response","243","109097","0.0-3.0-2.56","","null","img_mproj/Mfrench/9.jpg","null","actual_stimuli_presentation_2","",""
"","","","","","html-keyboard-response","244","110012","0.0-3.0-3.56","","914","<p> Press S if the two images were the same, Press D if the two images were different. </p>","d","response","d","DMF"
"","","","","","image-keyboard-response","245","110214","0.0-3.0-0.57","","null","img_mproj/tools/3.jpg","null","actual_stimuli_presentation_1","",""
"","","","","","html-keyboard-response","246","110515","0.0-3.0-1.57","","null","<div style=""font-size:60px;"">+</div>","null","fixation","",""
"","","","","","image-keyboard-response","247","110718","0.0-3.0-2.57","","null","img_mproj/tools/14.jpg","null","actual_stimuli_presentation_2","",""
"","","","","","html-keyboard-response","248","111186","0.0-3.0-3.57","","467","<p> Press S if the two images were the same, Press D if the two images were different. </p>","d","response","d","DNT"
"","","","","","image-keyboard-response","249","111388","0.0-3.0-0.58","","null","img_mproj/Mfalse/7.jpg","null","actual_stimuli_presentation_1","",""
"","","","","","html-keyboard-response","250","111689","0.0-3.0-1.58","","null","<div style=""font-size:60px;"">+</div>","null","fixation","",""
"","","","","","image-keyboard-response","251","111891","0.0-3.0-2.58","","null","img_mproj/Mfalse/9.jpg","null","actual_stimuli_presentation_2","",""
"","","","","","html-keyboard-response","252","112829","0.0-3.0-3.58","","938","<p> Press S if the two images were the same, Press D if the two images were different. </p>","d","response","d","DMP"
"","","","","","image-keyboard-response","253","113035","0.0-3.0-0.59","","null","img_mproj/jap/8.jpg","null","actual_stimuli_presentation_1","",""
"","","","","","html-keyboard-response","254","113337","0.0-3.0-1.59","","null","<div style=""font-size:60px;"">+</div>","null","fixation","",""
"","","","","","image-keyboard-response","255","113541","0.0-3.0-2.59","","null","img_mproj/jap/8.jpg","null","actual_stimuli_presentation_2","",""
"","","","","","html-keyboard-response","256","114182","0.0-3.0-3.59","","641","<p> Press S if the two images were the same, Press D if the two images were different. </p>","s","response","s","SNJ"
"","","","","","image-keyboard-response","257","114384","0.0-3.0-0.60","","null","img_mproj/faces/12.jpg","null","actual_stimuli_presentation_1","",""
"","","","","","html-keyboard-response","258","114686","0.0-3.0-1.60","","null","<div style=""font-size:60px;"">+</div>","null","fixation","",""
"","","","","","image-keyboard-response","259","114887","0.0-3.0-2.60","","null","img_mproj/faces/14.jpg","null","actual_stimuli_presentation_2","",""
"","","","","","html-keyboard-response","260","115328","0.0-3.0-3.60","","440","<p> Press S if the two images were the same, Press D if the two images were different. </p>","d","response","d","DNM"
"","","","","","image-keyboard-response","261","115530","0.0-3.0-0.61","","null","img_mproj/faces/7.jpg","null","actual_stimuli_presentation_1","",""
"","","","","","html-keyboard-response","262","115831","0.0-3.0-1.61","","null","<div style=""font-size:60px;"">+</div>","null","fixation","",""
"","","","","","image-keyboard-response","263","116033","0.0-3.0-2.61","","null","img_mproj/Mfaces/7.jpg","null","actual_stimuli_presentation_2","",""
"","","","","","html-keyboard-response","264","116535","0.0-3.0-3.61","","503","<p> Press S if the two images were the same, Press D if the two images were different. </p>","s","response","s","SMM"
"","","","","","image-keyboard-response","265","116737","0.0-3.0-0.62","","null","img_mproj/false/12.jpg","null","actual_stimuli_presentation_1","",""
"","","","","","html-keyboard-response","266","117038","0.0-3.0-1.62","","null","<div style=""font-size:60px;"">+</div>","null","fixation","",""
"","","","","","image-keyboard-response","267","117241","0.0-3.0-2.62","","null","img_mproj/false/14.jpg","null","actual_stimuli_presentation_2","",""
"","","","","","html-keyboard-response","268","118706","0.0-3.0-3.62","","1463","<p> Press S if the two images were the same, Press D if the two images were different. </p>","d","response","d","DNP"
"","","","","","image-keyboard-response","269","118908","0.0-3.0-0.63","","null","img_mproj/jap/7.jpg","null","actual_stimuli_presentation_1","",""
"","","","","","html-keyboard-response","270","119210","0.0-3.0-1.63","","null","<div style=""font-size:60px;"">+</div>","null","fixation","",""
"","","","","","image-keyboard-response","271","119412","0.0-3.0-2.63","","null","img_mproj/jap/7.jpg","null","actual_stimuli_presentation_2","",""
"","","","","","html-keyboard-response","272","120102","0.0-3.0-3.63","","690","<p> Press S if the two images were the same, Press D if the two images were different. </p>","s","response","s","SNJ"
"","","","","","image-keyboard-response","273","120305","0.0-3.0-0.64","","null","img_mproj/Mtools/13.jpg","null","actual_stimuli_presentation_1","",""
"","","","","","html-keyboard-response","274","120607","0.0-3.0-1.64","","null","<div style=""font-size:60px;"">+</div>","null","fixation","",""
"","","","","","image-keyboard-response","275","120809","0.0-3.0-2.64","","null","img_mproj/Mtools/9.jpg","null","actual_stimuli_presentation_2","",""
"","","","","","html-keyboard-response","276","121500","0.0-3.0-3.64","","690","<p> Press S if the two images were the same, Press D if the two images were different. </p>","d","response","d","DMT"
"","","","","","image-keyboard-response","277","121702","0.0-3.0-0.65","","null","img_mproj/french/11.jpg","null","actual_stimuli_presentation_1","",""
"","","","","","html-keyboard-response","278","122004","0.0-3.0-1.65","","null","<div style=""font-size:60px;"">+</div>","null","fixation","",""
"","","","","","image-keyboard-response","279","122208","0.0-3.0-2.65","","null","img_mproj/french/4.jpg","null","actual_stimuli_presentation_2","",""
"","","","","","html-keyboard-response","280","123162","0.0-3.0-3.65","","954","<p> Press S if the two images were the same, Press D if the two images were different. </p>","d","response","d","DNF"
"","","","","","image-keyboard-response","281","123364","0.0-3.0-0.66","","null","img_mproj/jap/3.jpg","null","actual_stimuli_presentation_1","",""
"","","","","","html-keyboard-response","282","123665","0.0-3.0-1.66","","null","<div style=""font-size:60px;"">+</div>","null","fixation","",""
"","","","","","image-keyboard-response","283","123867","0.0-3.0-2.66","","null","img_mproj/jap/14.jpg","null","actual_stimuli_presentation_2","",""
"","","","","","html-keyboard-response","284","124679","0.0-3.0-3.66","","812","<p> Press S if the two images were the same, Press D if the two images were different. </p>","d","response","d","DNJ"
"","","","","","image-keyboard-response","285","124882","0.0-3.0-0.67","","null","img_mproj/Mfrench/4.jpg","null","actual_stimuli_presentation_1","",""
"","","","","","html-keyboard-response","286","125184","0.0-3.0-1.67","","null","<div style=""font-size:60px;"">+</div>","null","fixation","",""
"","","","","","image-keyboard-response","287","125386","0.0-3.0-2.67","","null","img_mproj/Mfrench/12.jpg","null","actual_stimuli_presentation_2","",""
"","","","","","html-keyboard-response","288","126276","0.0-3.0-3.67","","890","<p> Press S if the two images were the same, Press D if the two images were different. </p>","s","response","d","DMF"
"","","","","","image-keyboard-response","289","126479","0.0-3.0-0.68","","null","img_mproj/french/10.jpg","null","actual_stimuli_presentation_1","",""
"","","","","","html-keyboard-response","290","126780","0.0-3.0-1.68","","null","<div style=""font-size:60px;"">+</div>","null","fixation","",""
"","","","","","image-keyboard-response","291","126982","0.0-3.0-2.68","","null","img_mproj/french/9.jpg","null","actual_stimuli_presentation_2","",""
"","","","","","html-keyboard-response","292","127746","0.0-3.0-3.68","","763","<p> Press S if the two images were the same, Press D if the two images were different. </p>","d","response","d","DNF"
"","","","","","image-keyboard-response","293","127948","0.0-3.0-0.69","","null","img_mproj/tools/10.jpg","null","actual_stimuli_presentation_1","",""
"","","","","","html-keyboard-response","294","128249","0.0-3.0-1.69","","null","<div style=""font-size:60px;"">+</div>","null","fixation","",""
"","","","","","image-keyboard-response","295","128452","0.0-3.0-2.69","","null","img_mproj/tools/10.jpg","null","actual_stimuli_presentation_2","",""
"","","","","","html-keyboard-response","296","128777","0.0-3.0-3.69","","324","<p> Press S if the two images were the same, Press D if the two images were different. </p>","s","response","s","SNT"
"","","","","","image-keyboard-response","297","128980","0.0-3.0-0.70","","null","img_mproj/faces/14.jpg","null","actual_stimuli_presentation_1","",""
"","","","","","html-keyboard-response","298","129281","0.0-3.0-1.70","","null","<div style=""font-size:60px;"">+</div>","null","fixation","",""
"","","","","","image-keyboard-response","299","129483","0.0-3.0-2.70","","null","img_mproj/Mfaces/14.jpg","null","actual_stimuli_presentation_2","",""
"","","","","","html-keyboard-response","300","129862","0.0-3.0-3.70","","378","<p> Press S if the two images were the same, Press D if the two images were different. </p>","s","response","s","SMM"
"","","","","","image-keyboard-response","301","130065","0.0-3.0-0.71","","null","img_mproj/tools/14.jpg","null","actual_stimuli_presentation_1","",""
"","","","","","html-keyboard-response","302","130366","0.0-3.0-1.71","","null","<div style=""font-size:60px;"">+</div>","null","fixation","",""
"","","","","","image-keyboard-response","303","130567","0.0-3.0-2.71","","null","img_mproj/tools/14.jpg","null","actual_stimuli_presentation_2","",""
"","","","","","html-keyboard-response","304","131127","0.0-3.0-3.71","","560","<p> Press S if the two images were the same, Press D if the two images were different. </p>","s","response","s","SNT"
"","","","","","image-keyboard-response","305","131333","0.0-3.0-0.72","","null","img_mproj/tools/10.jpg","null","actual_stimuli_presentation_1","",""
"","","","","","html-keyboard-response","306","131635","0.0-3.0-1.72","","null","<div style=""font-size:60px;"">+</div>","null","fixation","",""
"","","","","","image-keyboard-response","307","131838","0.0-3.0-2.72","","null","img_mproj/tools/9.jpg","null","actual_stimuli_presentation_2","",""
"","","","","","html-keyboard-response","308","132247","0.0-3.0-3.72","","408","<p> Press S if the two images were the same, Press D if the two images were different. </p>","d","response","d","DNT"
"","","","","","image-keyboard-response","309","132449","0.0-3.0-0.73","","null","img_mproj/Mfalse/6.jpg","null","actual_stimuli_presentation_1","",""
"","","","","","html-keyboard-response","310","132751","0.0-3.0-1.73","","null","<div style=""font-size:60px;"">+</div>","null","fixation","",""
"","","","","","image-keyboard-response","311","132954","0.0-3.0-2.73","","null","img_mproj/Mfalse/14.jpg","null","actual_stimuli_presentation_2","",""
"","","","","","html-keyboard-response","312","133803","0.0-3.0-3.73","","849","<p> Press S if the two images were the same, Press D if the two images were different. </p>","d","response","d","DMP"
"","","","","","image-keyboard-response","313","134005","0.0-3.0-0.74","","null","img_mproj/Mfalse/1.jpg","null","actual_stimuli_presentation_1","",""
"","","","","","html-keyboard-response","314","134307","0.0-3.0-1.74","","null","<div style=""font-size:60px;"">+</div>","null","fixation","",""
"","","","","","image-keyboard-response","315","134514","0.0-3.0-2.74","","null","img_mproj/Mfalse/7.jpg","null","actual_stimuli_presentation_2","",""
"","","","","","html-keyboard-response","316","135365","0.0-3.0-3.74","","851","<p> Press S if the two images were the same, Press D if the two images were different. </p>","d","response","d","DMP"
"","","","","","image-keyboard-response","317","135568","0.0-3.0-0.75","","null","img_mproj/false/13.jpg","null","actual_stimuli_presentation_1","",""
"","","","","","html-keyboard-response","318","135870","0.0-3.0-1.75","","null","<div style=""font-size:60px;"">+</div>","null","fixation","",""
"","","","","","image-keyboard-response","319","136072","0.0-3.0-2.75","","null","img_mproj/Mfalse/13.jpg","null","actual_stimuli_presentation_2","",""
"","","","","","html-keyboard-response","320","136575","0.0-3.0-3.75","","502","<p> Press S if the two images were the same, Press D if the two images were different. </p>","s","response","s","SMP"
"","","","","","image-keyboard-response","321","136777","0.0-3.0-0.76","","null","img_mproj/tools/13.jpg","null","actual_stimuli_presentation_1","",""
"","","","","","html-keyboard-response","322","137078","0.0-3.0-1.76","","null","<div style=""font-size:60px;"">+</div>","null","fixation","",""
"","","","","","image-keyboard-response","323","137281","0.0-3.0-2.76","","null","img_mproj/tools/13.jpg","null","actual_stimuli_presentation_2","",""
"","","","","","html-keyboard-response","324","137878","0.0-3.0-3.76","","596","<p> Press S if the two images were the same, Press D if the two images were different. </p>","s","response","s","SNT"
"","","","","","image-keyboard-response","325","138080","0.0-3.0-0.77","","null","img_mproj/french/14.jpg","null","actual_stimuli_presentation_1","",""
"","","","","","html-keyboard-response","326","138381","0.0-3.0-1.77","","null","<div style=""font-size:60px;"">+</div>","null","fixation","",""
"","","","","","image-keyboard-response","327","138585","0.0-3.0-2.77","","null","img_mproj/french/14.jpg","null","actual_stimuli_presentation_2","",""
"","","","","","html-keyboard-response","328","138915","0.0-3.0-3.77","","329","<p> Press S if the two images were the same, Press D if the two images were different. </p>","s","response","s","SNF"
"","","","","","image-keyboard-response","329","139118","0.0-3.0-0.78","","null","img_mproj/Mtools/5.jpg","null","actual_stimuli_presentation_1","",""
"","","","","","html-keyboard-response","330","139419","0.0-3.0-1.78","","null","<div style=""font-size:60px;"">+</div>","null","fixation","",""
"","","","","","image-keyboard-response","331","139621","0.0-3.0-2.78","","null","img_mproj/Mtools/10.jpg","null","actual_stimuli_presentation_2","",""
"","","","","","html-keyboard-response","332","140154","0.0-3.0-3.78","","533","<p> Press S if the two images were the same, Press D if the two images were different. </p>","d","response","d","DMT"
"","","","","","image-keyboard-response","333","140356","0.0-3.0-0.79","","null","img_mproj/jap/7.jpg","null","actual_stimuli_presentation_1","",""
"","","","","","html-keyboard-response","334","140659","0.0-3.0-1.79","","null","<div style=""font-size:60px;"">+</div>","null","fixation","",""
"","","","","","image-keyboard-response","335","140865","0.0-3.0-2.79","","null","img_mproj/jap/9.jpg","null","actual_stimuli_presentation_2","",""
"","","","","","html-keyboard-response","336","141467","0.0-3.0-3.79","","601","<p> Press S if the two images were the same, Press D if the two images were different. </p>","d","response","d","DNJ"
"","","","","","image-keyboard-response","337","141670","0.0-3.0-0.80","","null","img_mproj/Mfaces/14.jpg","null","actual_stimuli_presentation_1","",""
"","","","","","html-keyboard-response","338","141971","0.0-3.0-1.80","","null","<div style=""font-size:60px;"">+</div>","null","fixation","",""
"","","","","","image-keyboard-response","339","142174","0.0-3.0-2.80","","null","img_mproj/Mfaces/1.jpg","null","actual_stimuli_presentation_2","",""
"","","","","","html-keyboard-response","340","142723","0.0-3.0-3.80","","549","<p> Press S if the two images were the same, Press D if the two images were different. </p>","d","response","d","DMM"
"","","","","","image-keyboard-response","341","142926","0.0-3.0-0.81","","null","img_mproj/Mfrench/14.jpg","null","actual_stimuli_presentation_1","",""
"","","","","","html-keyboard-response","342","143228","0.0-3.0-1.81","","null","<div style=""font-size:60px;"">+</div>","null","fixation","",""
"","","","","","image-keyboard-response","343","143430","0.0-3.0-2.81","","null","img_mproj/Mfrench/1.jpg","null","actual_stimuli_presentation_2","",""
"","","","","","html-keyboard-response","344","144226","0.0-3.0-3.81","","796","<p> Press S if the two images were the same, Press D if the two images were different. </p>","s","response","d","DMF"
"","","","","","image-keyboard-response","345","144429","0.0-3.0-0.82","","null","img_mproj/Mfalse/11.jpg","null","actual_stimuli_presentation_1","",""
"","","","","","html-keyboard-response","346","144730","0.0-3.0-1.82","","null","<div style=""font-size:60px;"">+</div>","null","fixation","",""
"","","","","","image-keyboard-response","347","144932","0.0-3.0-2.82","","null","img_mproj/Mfalse/4.jpg","null","actual_stimuli_presentation_2","",""
"","","","","","html-keyboard-response","348","145571","0.0-3.0-3.82","","638","<p> Press S if the two images were the same, Press D if the two images were different. </p>","d","response","d","DMP"
"","","","","","image-keyboard-response","349","145773","0.0-3.0-0.83","","null","img_mproj/tools/1.jpg","null","actual_stimuli_presentation_1","",""
"","","","","","html-keyboard-response","350","146074","0.0-3.0-1.83","","null","<div style=""font-size:60px;"">+</div>","null","fixation","",""
"","","","","","image-keyboard-response","351","146277","0.0-3.0-2.83","","null","img_mproj/tools/1.jpg","null","actual_stimuli_presentation_2","",""
"","","","","","html-keyboard-response","352","146635","0.0-3.0-3.83","","358","<p> Press S if the two images were the same, Press D if the two images were different. </p>","s","response","s","SNT"
"","","","","","image-keyboard-response","353","146837","0.0-3.0-0.84","","null","img_mproj/tools/12.jpg","null","actual_stimuli_presentation_1","",""
"","","","","","html-keyboard-response","354","147138","0.0-3.0-1.84","","null","<div style=""font-size:60px;"">+</div>","null","fixation","",""
"","","","","","image-keyboard-response","355","147340","0.0-3.0-2.84","","null","img_mproj/tools/14.jpg","null","actual_stimuli_presentation_2","",""
"","","","","","html-keyboard-response","356","148101","0.0-3.0-3.84","","761","<p> Press S if the two images were the same, Press D if the two images were different. </p>","d","response","d","DNT"
"","","","","","image-keyboard-response","357","148303","0.0-3.0-0.85","","null","img_mproj/faces/1.jpg","null","actual_stimuli_presentation_1","",""
"","","","","","html-keyboard-response","358","148605","0.0-3.0-1.85","","null","<div style=""font-size:60px;"">+</div>","null","fixation","",""
"","","","","","image-keyboard-response","359","148808","0.0-3.0-2.85","","null","img_mproj/faces/1.jpg","null","actual_stimuli_presentation_2","",""
"","","","","","html-keyboard-response","360","149202","0.0-3.0-3.85","","393","<p> Press S if the two images were the same, Press D if the two images were different. </p>","s","response","s","SNM"
"","","","","","image-keyboard-response","361","149404","0.0-3.0-0.86","","null","img_mproj/jap/8.jpg","null","actual_stimuli_presentation_1","",""
"","","","","","html-keyboard-response","362","149705","0.0-3.0-1.86","","null","<div style=""font-size:60px;"">+</div>","null","fixation","",""
"","","","","","image-keyboard-response","363","149911","0.0-3.0-2.86","","null","img_mproj/Mjap/8.jpg","null","actual_stimuli_presentation_2","",""
"","","","","","html-keyboard-response","364","150778","0.0-3.0-3.86","","867","<p> Press S if the two images were the same, Press D if the two images were different. </p>","d","response","s","SMJ"
"","","","","","image-keyboard-response","365","150981","0.0-3.0-0.87","","null","img_mproj/french/6.jpg","null","actual_stimuli_presentation_1","",""
"","","","","","html-keyboard-response","366","151282","0.0-3.0-1.87","","null","<div style=""font-size:60px;"">+</div>","null","fixation","",""
"","","","","","image-keyboard-response","367","151485","0.0-3.0-2.87","","null","img_mproj/french/6.jpg","null","actual_stimuli_presentation_2","",""
"","","","","","html-keyboard-response","368","151895","0.0-3.0-3.87","","409","<p> Press S if the two images were the same, Press D if the two images were different. </p>","s","response","s","SNF"
"","","","","","image-keyboard-response","369","152097","0.0-3.0-0.88","","null","img_mproj/faces/13.jpg","null","actual_stimuli_presentation_1","",""
"","","","","","html-keyboard-response","370","152398","0.0-3.0-1.88","","null","<div style=""font-size:60px;"">+</div>","null","fixation","",""
"","","","","","image-keyboard-response","371","152600","0.0-3.0-2.88","","null","img_mproj/Mfaces/13.jpg","null","actual_stimuli_presentation_2","",""
"","","","","","html-keyboard-response","372","152921","0.0-3.0-3.88","","320","<p> Press S if the two images were the same, Press D if the two images were different. </p>","s","response","s","SMM"
"","","","","","image-keyboard-response","373","153124","0.0-3.0-0.89","","null","img_mproj/Mfaces/7.jpg","null","actual_stimuli_presentation_1","",""
"","","","","","html-keyboard-response","374","153425","0.0-3.0-1.89","","null","<div style=""font-size:60px;"">+</div>","null","fixation","",""
"","","","","","image-keyboard-response","375","153629","0.0-3.0-2.89","","null","img_mproj/Mfaces/9.jpg","null","actual_stimuli_presentation_2","",""
"","","","","","html-keyboard-response","376","155196","0.0-3.0-3.89","","1567","<p> Press S if the two images were the same, Press D if the two images were different. </p>","d","response","d","DMM"
"","","","","","image-keyboard-response","377","155399","0.0-3.0-0.90","","null","img_mproj/tools/8.jpg","null","actual_stimuli_presentation_1","",""
"","","","","","html-keyboard-response","378","155701","0.0-3.0-1.90","","null","<div style=""font-size:60px;"">+</div>","null","fixation","",""
"","","","","","image-keyboard-response","379","155904","0.0-3.0-2.90","","null","img_mproj/tools/2.jpg","null","actual_stimuli_presentation_2","",""
"","","","","","html-keyboard-response","380","156439","0.0-3.0-3.90","","534","<p> Press S if the two images were the same, Press D if the two images were different. </p>","d","response","d","DNT"
"","","","","","image-keyboard-response","381","156641","0.0-3.0-0.91","","null","img_mproj/false/2.jpg","null","actual_stimuli_presentation_1","",""
"","","","","","html-keyboard-response","382","156942","0.0-3.0-1.91","","null","<div style=""font-size:60px;"">+</div>","null","fixation","",""
"","","","","","image-keyboard-response","383","157144","0.0-3.0-2.91","","null","img_mproj/false/2.jpg","null","actual_stimuli_presentation_2","",""
"","","","","","html-keyboard-response","384","157805","0.0-3.0-3.91","","660","<p> Press S if the two images were the same, Press D if the two images were different. </p>","s","response","s","SNP"
"","","","","","image-keyboard-response","385","158007","0.0-3.0-0.92","","null","img_mproj/faces/14.jpg","null","actual_stimuli_presentation_1","",""
"","","","","","html-keyboard-response","386","158309","0.0-3.0-1.92","","null","<div style=""font-size:60px;"">+</div>","null","fixation","",""
"","","","","","image-keyboard-response","387","158511","0.0-3.0-2.92","","null","img_mproj/faces/14.jpg","null","actual_stimuli_presentation_2","",""
"","","","","","html-keyboard-response","388","159087","0.0-3.0-3.92","","575","<p> Press S if the two images were the same, Press D if the two images were different. </p>","s","response","s","SNM"
"","","","","","image-keyboard-response","389","159289","0.0-3.0-0.93","","null","img_mproj/tools/2.jpg","null","actual_stimuli_presentation_1","",""
"","","","","","html-keyboard-response","390","159590","0.0-3.0-1.93","","null","<div style=""font-size:60px;"">+</div>","null","fixation","",""
"","","","","","image-keyboard-response","391","159793","0.0-3.0-2.93","","null","img_mproj/Mtools/2.jpg","null","actual_stimuli_presentation_2","",""
"","","","","","html-keyboard-response","392","160161","0.0-3.0-3.93","","367","<p> Press S if the two images were the same, Press D if the two images were different. </p>","d","response","s","SMT"
"","","","","","image-keyboard-response","393","160366","0.0-3.0-0.94","","null","img_mproj/false/9.jpg","null","actual_stimuli_presentation_1","",""
"","","","","","html-keyboard-response","394","160668","0.0-3.0-1.94","","null","<div style=""font-size:60px;"">+</div>","null","fixation","",""
"","","","","","image-keyboard-response","395","160871","0.0-3.0-2.94","","null","img_mproj/false/3.jpg","null","actual_stimuli_presentation_2","",""
"","","","","","html-keyboard-response","396","162573","0.0-3.0-3.94","","1701","<p> Press S if the two images were the same, Press D if the two images were different. </p>","d","response","d","DNP"
"","","","","","image-keyboard-response","397","162775","0.0-3.0-0.95","","null","img_mproj/Mfaces/10.jpg","null","actual_stimuli_presentation_1","",""
"","","","","","html-keyboard-response","398","163077","0.0-3.0-1.95","","null","<div style=""font-size:60px;"">+</div>","null","fixation","",""
"","","","","","image-keyboard-response","399","163279","0.0-3.0-2.95","","null","img_mproj/Mfaces/9.jpg","null","actual_stimuli_presentation_2","",""
"","","","","","html-keyboard-response","400","163719","0.0-3.0-3.95","","440","<p> Press S if the two images were the same, Press D if the two images were different. </p>","s","response","d","DMM"
"","","","","","image-keyboard-response","401","163921","0.0-3.0-0.96","","null","img_mproj/faces/14.jpg","null","actual_stimuli_presentation_1","",""
"","","","","","html-keyboard-response","402","164223","0.0-3.0-1.96","","null","<div style=""font-size:60px;"">+</div>","null","fixation","",""
"","","","","","image-keyboard-response","403","164426","0.0-3.0-2.96","","null","img_mproj/faces/1.jpg","null","actual_stimuli_presentation_2","",""
"","","","","","html-keyboard-response","404","165046","0.0-3.0-3.96","","619","<p> Press S if the two images were the same, Press D if the two images were different. </p>","d","response","d","DNM"
"","","","","","image-keyboard-response","405","165248","0.0-3.0-0.97","","null","img_mproj/Mfrench/10.jpg","null","actual_stimuli_presentation_1","",""
"","","","","","html-keyboard-response","406","165550","0.0-3.0-1.97","","null","<div style=""font-size:60px;"">+</div>","null","fixation","",""
"","","","","","image-keyboard-response","407","165757","0.0-3.0-2.97","","null","img_mproj/Mfrench/9.jpg","null","actual_stimuli_presentation_2","",""
"","","","","","html-keyboard-response","408","166626","0.0-3.0-3.97","","868","<p> Press S if the two images were the same, Press D if the two images were different. </p>","d","response","d","DMF"
"","","","","","image-keyboard-response","409","166827","0.0-3.0-0.98","","null","img_mproj/jap/5.jpg","null","actual_stimuli_presentation_1","",""
"","","","","","html-keyboard-response","410","167129","0.0-3.0-1.98","","null","<div style=""font-size:60px;"">+</div>","null","fixation","",""
"","","","","","image-keyboard-response","411","167332","0.0-3.0-2.98","","null","img_mproj/jap/5.jpg","null","actual_stimuli_presentation_2","",""
"","","","","","html-keyboard-response","412","167927","0.0-3.0-3.98","","595","<p> Press S if the two images were the same, Press D if the two images were different. </p>","s","response","s","SNJ"
"","","","","","image-keyboard-response","413","168130","0.0-3.0-0.99","","null","img_mproj/french/2.jpg","null","actual_stimuli_presentation_1","",""
"","","","","","html-keyboard-response","414","168431","0.0-3.0-1.99","","null","<div style=""font-size:60px;"">+</div>","null","fixation","",""
"","","","","","image-keyboard-response","415","168633","0.0-3.0-2.99","","null","img_mproj/french/2.jpg","null","actual_stimuli_presentation_2","",""
"","","","","","html-keyboard-response","416","169398","0.0-3.0-3.99","","765","<p> Press S if the two images were the same, Press D if the two images were different. </p>","s","response","s","SNF"
"","","","","","image-keyboard-response","417","169600","0.0-3.0-0.100","","null","img_mproj/Mtools/6.jpg","null","actual_stimuli_presentation_1","",""
"","","","","","html-keyboard-response","418","169901","0.0-3.0-1.100","","null","<div style=""font-size:60px;"">+</div>","null","fixation","",""
"","","","","","image-keyboard-response","419","170103","0.0-3.0-2.100","","null","img_mproj/Mtools/14.jpg","null","actual_stimuli_presentation_2","",""
"","","","","","html-keyboard-response","420","170990","0.0-3.0-3.100","","886","<p> Press S if the two images were the same, Press D if the two images were different. </p>","d","response","d","DMT"
"","","","","","image-keyboard-response","421","171192","0.0-3.0-0.101","","null","img_mproj/french/6.jpg","null","actual_stimuli_presentation_1","",""
"","","","","","html-keyboard-response","422","171492","0.0-3.0-1.101","","null","<div style=""font-size:60px;"">+</div>","null","fixation","",""
"","","","","","image-keyboard-response","423","171695","0.0-3.0-2.101","","null","img_mproj/Mfrench/6.jpg","null","actual_stimuli_presentation_2","",""
"","","","","","html-keyboard-response","424","172502","0.0-3.0-3.101","","807","<p> Press S if the two images were the same, Press D if the two images were different. </p>","s","response","s","SMF"
"","","","","","image-keyboard-response","425","172704","0.0-3.0-0.102","","null","img_mproj/Mfrench/6.jpg","null","actual_stimuli_presentation_1","",""
"","","","","","html-keyboard-response","426","173005","0.0-3.0-1.102","","null","<div style=""font-size:60px;"">+</div>","null","fixation","",""
"","","","","","image-keyboard-response","427","173212","0.0-3.0-2.102","","null","img_mproj/Mfrench/14.jpg","null","actual_stimuli_presentation_2","",""
"","","","","","html-keyboard-response","428","173864","0.0-3.0-3.102","","651","<p> Press S if the two images were the same, Press D if the two images were different. </p>","d","response","d","DMF"
"","","","","","image-keyboard-response","429","174067","0.0-3.0-0.103","","null","img_mproj/false/1.jpg","null","actual_stimuli_presentation_1","",""
"","","","","","html-keyboard-response","430","174368","0.0-3.0-1.103","","null","<div style=""font-size:60px;"">+</div>","null","fixation","",""
"","","","","","image-keyboard-response","431","174570","0.0-3.0-2.103","","null","img_mproj/false/1.jpg","null","actual_stimuli_presentation_2","",""
"","","","","","html-keyboard-response","432","175006","0.0-3.0-3.103","","436","<p> Press S if the two images were the same, Press D if the two images were different. </p>","s","response","s","SNP"
"","","","","","image-keyboard-response","433","175208","0.0-3.0-0.104","","null","img_mproj/false/12.jpg","null","actual_stimuli_presentation_1","",""
"","","","","","html-keyboard-response","434","175510","0.0-3.0-1.104","","null","<div style=""font-size:60px;"">+</div>","null","fixation","",""
"","","","","","image-keyboard-response","435","175714","0.0-3.0-2.104","","null","img_mproj/Mfalse/12.jpg","null","actual_stimuli_presentation_2","",""
"","","","","","html-keyboard-response","436","176518","0.0-3.0-3.104","","804","<p> Press S if the two images were the same, Press D if the two images were different. </p>","d","response","s","SMP"
"","","","","","image-keyboard-response","437","176721","0.0-3.0-0.105","","null","img_mproj/faces/3.jpg","null","actual_stimuli_presentation_1","",""
"","","","","","html-keyboard-response","438","177022","0.0-3.0-1.105","","null","<div style=""font-size:60px;"">+</div>","null","fixation","",""
"","","","","","image-keyboard-response","439","177226","0.0-3.0-2.105","","null","img_mproj/faces/3.jpg","null","actual_stimuli_presentation_2","",""
"","","","","","html-keyboard-response","440","177701","0.0-3.0-3.105","","475","<p> Press S if the two images were the same, Press D if the two images were different. </p>","s","response","s","SNM"
"","","","","","image-keyboard-response","441","177903","0.0-3.0-0.106","","null","img_mproj/false/9.jpg","null","actual_stimuli_presentation_1","",""
"","","","","","html-keyboard-response","442","178205","0.0-3.0-1.106","","null","<div style=""font-size:60px;"">+</div>","null","fixation","",""
"","","","","","image-keyboard-response","443","178407","0.0-3.0-2.106","","null","img_mproj/false/9.jpg","null","actual_stimuli_presentation_2","",""
"","","","","","html-keyboard-response","444","178911","0.0-3.0-3.106","","503","<p> Press S if the two images were the same, Press D if the two images were different. </p>","s","response","s","SNP"
"","","","","","image-keyboard-response","445","179116","0.0-3.0-0.107","","null","img_mproj/french/10.jpg","null","actual_stimuli_presentation_1","",""
"","","","","","html-keyboard-response","446","179419","0.0-3.0-1.107","","null","<div style=""font-size:60px;"">+</div>","null","fixation","",""
"","","","","","image-keyboard-response","447","179621","0.0-3.0-2.107","","null","img_mproj/Mfrench/10.jpg","null","actual_stimuli_presentation_2","",""
"","","","","","html-keyboard-response","448","180035","0.0-3.0-3.107","","413","<p> Press S if the two images were the same, Press D if the two images were different. </p>","d","response","s","SMF"
"","","","","","image-keyboard-response","449","180237","0.0-3.0-0.108","","null","img_mproj/tools/12.jpg","null","actual_stimuli_presentation_1","",""
"","","","","","html-keyboard-response","450","180539","0.0-3.0-1.108","","null","<div style=""font-size:60px;"">+</div>","null","fixation","",""
"","","","","","image-keyboard-response","451","180741","0.0-3.0-2.108","","null","img_mproj/tools/12.jpg","null","actual_stimuli_presentation_2","",""
"","","","","","html-keyboard-response","452","181216","0.0-3.0-3.108","","474","<p> Press S if the two images were the same, Press D if the two images were different. </p>","d","response","s","SNT"
"","","","","","image-keyboard-response","453","181418","0.0-3.0-0.109","","null","img_mproj/faces/12.jpg","null","actual_stimuli_presentation_1","",""
"","","","","","html-keyboard-response","454","181719","0.0-3.0-1.109","","null","<div style=""font-size:60px;"">+</div>","null","fixation","",""
"","","","","","image-keyboard-response","455","181922","0.0-3.0-2.109","","null","img_mproj/faces/12.jpg","null","actual_stimuli_presentation_2","",""
"","","","","","html-keyboard-response","456","182549","0.0-3.0-3.109","","626","<p> Press S if the two images were the same, Press D if the two images were different. </p>","s","response","s","SNM"
"","","","","","image-keyboard-response","457","182752","0.0-3.0-0.110","","null","img_mproj/false/10.jpg","null","actual_stimuli_presentation_1","",""
"","","","","","html-keyboard-response","458","183053","0.0-3.0-1.110","","null","<div style=""font-size:60px;"">+</div>","null","fixation","",""
"","","","","","image-keyboard-response","459","183261","0.0-3.0-2.110","","null","img_mproj/Mfalse/10.jpg","null","actual_stimuli_presentation_2","",""
"","","","","","html-keyboard-response","460","184027","0.0-3.0-3.110","","765","<p> Press S if the two images were the same, Press D if the two images were different. </p>","s","response","s","SMP"
"","","","","","image-keyboard-response","461","184230","0.0-3.0-0.111","","null","img_mproj/tools/13.jpg","null","actual_stimuli_presentation_1","",""
"","","","","","html-keyboard-response","462","184531","0.0-3.0-1.111","","null","<div style=""font-size:60px;"">+</div>","null","fixation","",""
"","","","","","image-keyboard-response","463","184733","0.0-3.0-2.111","","null","img_mproj/tools/9.jpg","null","actual_stimuli_presentation_2","",""
"","","","","","html-keyboard-response","464","185178","0.0-3.0-3.111","","444","<p> Press S if the two images were the same, Press D if the two images were different. </p>","d","response","d","DNT"
"","","","","","image-keyboard-response","465","185381","0.0-3.0-0.112","","null","img_mproj/french/10.jpg","null","actual_stimuli_presentation_1","",""
"","","","","","html-keyboard-response","466","185683","0.0-3.0-1.112","","null","<div style=""font-size:60px;"">+</div>","null","fixation","",""
"","","","","","image-keyboard-response","467","185886","0.0-3.0-2.112","","null","img_mproj/french/10.jpg","null","actual_stimuli_presentation_2","",""
"","","","","","html-keyboard-response","468","186154","0.0-3.0-3.112","","267","<p> Press S if the two images were the same, Press D if the two images were different. </p>","s","response","s","SNF"
"","","","","","image-keyboard-response","469","186359","0.0-3.0-0.113","","null","img_mproj/Mfrench/9.jpg","null","actual_stimuli_presentation_1","",""
"","","","","","html-keyboard-response","470","186660","0.0-3.0-1.113","","null","<div style=""font-size:60px;"">+</div>","null","fixation","",""
"","","","","","image-keyboard-response","471","186862","0.0-3.0-2.113","","null","img_mproj/Mfrench/3.jpg","null","actual_stimuli_presentation_2","",""
"","","","","","html-keyboard-response","472","187544","0.0-3.0-3.113","","682","<p> Press S if the two images were the same, Press D if the two images were different. </p>","d","response","d","DMF"
"","","","","","image-keyboard-response","473","187747","0.0-3.0-0.114","","null","img_mproj/faces/4.jpg","null","actual_stimuli_presentation_1","",""
"","","","","","html-keyboard-response","474","188048","0.0-3.0-1.114","","null","<div style=""font-size:60px;"">+</div>","null","fixation","",""
"","","","","","image-keyboard-response","475","188251","0.0-3.0-2.114","","null","img_mproj/faces/4.jpg","null","actual_stimuli_presentation_2","",""
"","","","","","html-keyboard-response","476","188806","0.0-3.0-3.114","","554","<p> Press S if the two images were the same, Press D if the two images were different. </p>","s","response","s","SNM"
"","","","","","image-keyboard-response","477","189007","0.0-3.0-0.115","","null","img_mproj/Mfaces/4.jpg","null","actual_stimuli_presentation_1","",""
"","","","","","html-keyboard-response","478","189308","0.0-3.0-1.115","","null","<div style=""font-size:60px;"">+</div>","null","fixation","",""
"","","","","","image-keyboard-response","479","189509","0.0-3.0-2.115","","null","img_mproj/Mfaces/12.jpg","null","actual_stimuli_presentation_2","",""
"","","","","","html-keyboard-response","480","190201","0.0-3.0-3.115","","692","<p> Press S if the two images were the same, Press D if the two images were different. </p>","d","response","d","DMM"
"","","","","","image-keyboard-response","481","190402","0.0-3.0-0.116","","null","img_mproj/Mfalse/14.jpg","null","actual_stimuli_presentation_1","",""
"","","","","","html-keyboard-response","482","190704","0.0-3.0-1.116","","null","<div style=""font-size:60px;"">+</div>","null","fixation","",""
"","","","","","image-keyboard-response","483","190909","0.0-3.0-2.116","","null","img_mproj/Mfalse/1.jpg","null","actual_stimuli_presentation_2","",""
"","","","","","html-keyboard-response","484","191760","0.0-3.0-3.116","","850","<p> Press S if the two images were the same, Press D if the two images were different. </p>","d","response","d","DMP"
"","","","","","image-keyboard-response","485","191962","0.0-3.0-0.117","","null","img_mproj/tools/13.jpg","null","actual_stimuli_presentation_1","",""
"","","","","","html-keyboard-response","486","192264","0.0-3.0-1.117","","null","<div style=""font-size:60px;"">+</div>","null","fixation","",""
"","","","","","image-keyboard-response","487","192466","0.0-3.0-2.117","","null","img_mproj/Mtools/13.jpg","null","actual_stimuli_presentation_2","",""
"","","","","","html-keyboard-response","488","192794","0.0-3.0-3.117","","327","<p> Press S if the two images were the same, Press D if the two images were different. </p>","s","response","s","SMT"
"","","","","","image-keyboard-response","489","192996","0.0-3.0-0.118","","null","img_mproj/jap/4.jpg","null","actual_stimuli_presentation_1","",""
"","","","","","html-keyboard-response","490","193297","0.0-3.0-1.118","","null","<div style=""font-size:60px;"">+</div>","null","fixation","",""
"","","","","","image-keyboard-response","491","193499","0.0-3.0-2.118","","null","img_mproj/jap/4.jpg","null","actual_stimuli_presentation_2","",""
"","","","","","html-keyboard-response","492","193958","0.0-3.0-3.118","","459","<p> Press S if the two images were the same, Press D if the two images were different. </p>","s","response","s","SNJ"
"","","","","","image-keyboard-response","493","194161","0.0-3.0-0.119","","null","img_mproj/tools/3.jpg","null","actual_stimuli_presentation_1","",""
"","","","","","html-keyboard-response","494","194463","0.0-3.0-1.119","","null","<div style=""font-size:60px;"">+</div>","null","fixation","",""
"","","","","","image-keyboard-response","495","194665","0.0-3.0-2.119","","null","img_mproj/Mtools/3.jpg","null","actual_stimuli_presentation_2","",""
"","","","","","html-keyboard-response","496","195394","0.0-3.0-3.119","","729","<p> Press S if the two images were the same, Press D if the two images were different. </p>","s","response","s","SMT"
"","","","","","image-keyboard-response","497","195597","0.0-3.0-0.120","","null","img_mproj/jap/4.jpg","null","actual_stimuli_presentation_1","",""
"","","","","","html-keyboard-response","498","195898","0.0-3.0-1.120","","null","<div style=""font-size:60px;"">+</div>","null","fixation","",""
"","","","","","image-keyboard-response","499","196101","0.0-3.0-2.120","","null","img_mproj/Mjap/4.jpg","null","actual_stimuli_presentation_2","",""
"","","","","","html-keyboard-response","500","197288","0.0-3.0-3.120","","1187","<p> Press S if the two images were the same, Press D if the two images were different. </p>","s","response","s","SMJ"
"","","","","","image-keyboard-response","501","197490","0.0-3.0-0.121","","null","img_mproj/faces/8.jpg","null","actual_stimuli_presentation_1","",""
"","","","","","html-keyboard-response","502","197792","0.0-3.0-1.121","","null","<div style=""font-size:60px;"">+</div>","null","fixation","",""
"","","","","","image-keyboard-response","503","197995","0.0-3.0-2.121","","null","img_mproj/Mfaces/8.jpg","null","actual_stimuli_presentation_2","",""
"","","","","","html-keyboard-response","504","198660","0.0-3.0-3.121","","664","<p> Press S if the two images were the same, Press D if the two images were different. </p>","s","response","s","SMM"
"","","","","","image-keyboard-response","505","198863","0.0-3.0-0.122","","null","img_mproj/Mfaces/3.jpg","null","actual_stimuli_presentation_1","",""
"","","","","","html-keyboard-response","506","199164","0.0-3.0-1.122","","null","<div style=""font-size:60px;"">+</div>","null","fixation","",""
"","","","","","image-keyboard-response","507","199366","0.0-3.0-2.122","","null","img_mproj/Mfaces/14.jpg","null","actual_stimuli_presentation_2","",""
"","","","","","html-keyboard-response","508","199941","0.0-3.0-3.122","","575","<p> Press S if the two images were the same, Press D if the two images were different. </p>","d","response","d","DMM"
"","","","","","image-keyboard-response","509","200147","0.0-3.0-0.123","","null","img_mproj/french/12.jpg","null","actual_stimuli_presentation_1","",""
"","","","","","html-keyboard-response","510","200449","0.0-3.0-1.123","","null","<div style=""font-size:60px;"">+</div>","null","fixation","",""
"","","","","","image-keyboard-response","511","200652","0.0-3.0-2.123","","null","img_mproj/french/14.jpg","null","actual_stimuli_presentation_2","",""
"","","","","","html-keyboard-response","512","201264","0.0-3.0-3.123","","612","<p> Press S if the two images were the same, Press D if the two images were different. </p>","d","response","d","DNF"
"","","","","","image-keyboard-response","513","201466","0.0-3.0-0.124","","null","img_mproj/tools/8.jpg","null","actual_stimuli_presentation_1","",""
"","","","","","html-keyboard-response","514","201767","0.0-3.0-1.124","","null","<div style=""font-size:60px;"">+</div>","null","fixation","",""
"","","","","","image-keyboard-response","515","201971","0.0-3.0-2.124","","null","img_mproj/tools/8.jpg","null","actual_stimuli_presentation_2","",""
"","","","","","html-keyboard-response","516","202407","0.0-3.0-3.124","","435","<p> Press S if the two images were the same, Press D if the two images were different. </p>","s","response","s","SNT"
"","","","","","image-keyboard-response","517","202609","0.0-3.0-0.125","","null","img_mproj/jap/11.jpg","null","actual_stimuli_presentation_1","",""
"","","","","","html-keyboard-response","518","202910","0.0-3.0-1.125","","null","<div style=""font-size:60px;"">+</div>","null","fixation","",""
"","","","","","image-keyboard-response","519","203113","0.0-3.0-2.125","","null","img_mproj/jap/11.jpg","null","actual_stimuli_presentation_2","",""
"","","","","","html-keyboard-response","520","203673","0.0-3.0-3.125","","560","<p> Press S if the two images were the same, Press D if the two images were different. </p>","s","response","s","SNJ"
"","","","","","image-keyboard-response","521","203878","0.0-3.0-0.126","","null","img_mproj/false/10.jpg","null","actual_stimuli_presentation_1","",""
"","","","","","html-keyboard-response","522","204180","0.0-3.0-1.126","","null","<div style=""font-size:60px;"">+</div>","null","fixation","",""
"","","","","","image-keyboard-response","523","204383","0.0-3.0-2.126","","null","img_mproj/false/9.jpg","null","actual_stimuli_presentation_2","",""
"","","","","","html-keyboard-response","524","205177","0.0-3.0-3.126","","794","<p> Press S if the two images were the same, Press D if the two images were different. </p>","d","response","d","DNP"
"","","","","","image-keyboard-response","525","205379","0.0-3.0-0.127","","null","img_mproj/jap/1.jpg","null","actual_stimuli_presentation_1","",""
"","","","","","html-keyboard-response","526","205681","0.0-3.0-1.127","","null","<div style=""font-size:60px;"">+</div>","null","fixation","",""
"","","","","","image-keyboard-response","527","205884","0.0-3.0-2.127","","null","img_mproj/jap/7.jpg","null","actual_stimuli_presentation_2","",""
"","","","","","html-keyboard-response","528","206690","0.0-3.0-3.127","","806","<p> Press S if the two images were the same, Press D if the two images were different. </p>","d","response","d","DNJ"
"","","","","","image-keyboard-response","529","206895","0.0-3.0-0.128","","null","img_mproj/french/7.jpg","null","actual_stimuli_presentation_1","",""
"","","","","","html-keyboard-response","530","207197","0.0-3.0-1.128","","null","<div style=""font-size:60px;"">+</div>","null","fixation","",""
"","","","","","image-keyboard-response","531","207400","0.0-3.0-2.128","","null","img_mproj/Mfrench/7.jpg","null","actual_stimuli_presentation_2","",""
"","","","","","html-keyboard-response","532","208136","0.0-3.0-3.128","","736","<p> Press S if the two images were the same, Press D if the two images were different. </p>","s","response","s","SMF"
"","","","","","image-keyboard-response","533","208338","0.0-3.0-0.129","","null","img_mproj/jap/3.jpg","null","actual_stimuli_presentation_1","",""
"","","","","","html-keyboard-response","534","208639","0.0-3.0-1.129","","null","<div style=""font-size:60px;"">+</div>","null","fixation","",""
"","","","","","image-keyboard-response","535","208842","0.0-3.0-2.129","","null","img_mproj/jap/3.jpg","null","actual_stimuli_presentation_2","",""
"","","","","","html-keyboard-response","536","209525","0.0-3.0-3.129","","683","<p> Press S if the two images were the same, Press D if the two images were different. </p>","s","response","s","SNJ"
"","","","","","image-keyboard-response","537","209730","0.0-3.0-0.130","","null","img_mproj/jap/10.jpg","null","actual_stimuli_presentation_1","",""
"","","","","","html-keyboard-response","538","210032","0.0-3.0-1.130","","null","<div style=""font-size:60px;"">+</div>","null","fixation","",""
"","","","","","image-keyboard-response","539","210234","0.0-3.0-2.130","","null","img_mproj/jap/9.jpg","null","actual_stimuli_presentation_2","",""
"","","","","","html-keyboard-response","540","211088","0.0-3.0-3.130","","853","<p> Press S if the two images were the same, Press D if the two images were different. </p>","d","response","d","DNJ"
"","","","","","image-keyboard-response","541","211290","0.0-3.0-0.131","","null","img_mproj/tools/6.jpg","null","actual_stimuli_presentation_1","",""
"","","","","","html-keyboard-response","542","211590","0.0-3.0-1.131","","null","<div style=""font-size:60px;"">+</div>","null","fixation","",""
"","","","","","image-keyboard-response","543","211792","0.0-3.0-2.131","","null","img_mproj/tools/14.jpg","null","actual_stimuli_presentation_2","",""
"","","","","","html-keyboard-response","544","212938","0.0-3.0-3.131","","1146","<p> Press S if the two images were the same, Press D if the two images were different. </p>","d","response","d","DNT"
"","","","","","image-keyboard-response","545","213141","0.0-3.0-0.132","","null","img_mproj/Mfrench/12.jpg","null","actual_stimuli_presentation_1","",""
"","","","","","html-keyboard-response","546","213443","0.0-3.0-1.132","","null","<div style=""font-size:60px;"">+</div>","null","fixation","",""
"","","","","","image-keyboard-response","547","213645","0.0-3.0-2.132","","null","img_mproj/Mfrench/14.jpg","null","actual_stimuli_presentation_2","",""
"","","","","","html-keyboard-response","548","214633","0.0-3.0-3.132","","987","<p> Press S if the two images were the same, Press D if the two images were different. </p>","d","response","d","DMF"
"","","","","","image-keyboard-response","549","214836","0.0-3.0-0.133","","null","img_mproj/Mtools/9.jpg","null","actual_stimuli_presentation_1","",""
"","","","","","html-keyboard-response","550","215137","0.0-3.0-1.133","","null","<div style=""font-size:60px;"">+</div>","null","fixation","",""
"","","","","","image-keyboard-response","551","215340","0.0-3.0-2.133","","null","img_mproj/Mtools/3.jpg","null","actual_stimuli_presentation_2","",""
"","","","","","html-keyboard-response","552","216464","0.0-3.0-3.133","","1124","<p> Press S if the two images were the same, Press D if the two images were different. </p>","d","response","d","DMT"
"","","","","","image-keyboard-response","553","216666","0.0-3.0-0.134","","null","img_mproj/false/13.jpg","null","actual_stimuli_presentation_1","",""
"","","","","","html-keyboard-response","554","216967","0.0-3.0-1.134","","null","<div style=""font-size:60px;"">+</div>","null","fixation","",""
"","","","","","image-keyboard-response","555","217169","0.0-3.0-2.134","","null","img_mproj/false/9.jpg","null","actual_stimuli_presentation_2","",""
"","","","","","html-keyboard-response","556","217860","0.0-3.0-3.134","","689","<p> Press S if the two images were the same, Press D if the two images were different. </p>","d","response","d","DNP"
"","","","","","image-keyboard-response","557","218063","0.0-3.0-0.135","","null","img_mproj/jap/2.jpg","null","actual_stimuli_presentation_1","",""
"","","","","","html-keyboard-response","558","218365","0.0-3.0-1.135","","null","<div style=""font-size:60px;"">+</div>","null","fixation","",""
"","","","","","image-keyboard-response","559","218570","0.0-3.0-2.135","","null","img_mproj/jap/2.jpg","null","actual_stimuli_presentation_2","",""
"","","","","","html-keyboard-response","560","218933","0.0-3.0-3.135","","362","<p> Press S if the two images were the same, Press D if the two images were different. </p>","s","response","s","SNJ"
"","","","","","image-keyboard-response","561","219136","0.0-3.0-0.136","","null","img_mproj/Mtools/14.jpg","null","actual_stimuli_presentation_1","",""
"","","","","","html-keyboard-response","562","219437","0.0-3.0-1.136","","null","<div style=""font-size:60px;"">+</div>","null","fixation","",""
"","","","","","image-keyboard-response","563","219640","0.0-3.0-2.136","","null","img_mproj/Mtools/1.jpg","null","actual_stimuli_presentation_2","",""
"","","","","","html-keyboard-response","564","220528","0.0-3.0-3.136","","888","<p> Press S if the two images were the same, Press D if the two images were different. </p>","d","response","d","DMT"
"","","","","","image-keyboard-response","565","220731","0.0-3.0-0.137","","null","img_mproj/french/12.jpg","null","actual_stimuli_presentation_1","",""
"","","","","","html-keyboard-response","566","221033","0.0-3.0-1.137","","null","<div style=""font-size:60px;"">+</div>","null","fixation","",""
"","","","","","image-keyboard-response","567","221236","0.0-3.0-2.137","","null","img_mproj/french/12.jpg","null","actual_stimuli_presentation_2","",""
"","","","","","html-keyboard-response","568","222166","0.0-3.0-3.137","","930","<p> Press S if the two images were the same, Press D if the two images were different. </p>","s","response","s","SNF"
"","","","","","image-keyboard-response","569","222369","0.0-3.0-0.138","","null","img_mproj/faces/10.jpg","null","actual_stimuli_presentation_1","",""
"","","","","","html-keyboard-response","570","222670","0.0-3.0-1.138","","null","<div style=""font-size:60px;"">+</div>","null","fixation","",""
"","","","","","image-keyboard-response","571","222872","0.0-3.0-2.138","","null","img_mproj/faces/10.jpg","null","actual_stimuli_presentation_2","",""
"","","","","","html-keyboard-response","572","223315","0.0-3.0-3.138","","443","<p> Press S if the two images were the same, Press D if the two images were different. </p>","s","response","s","SNM"
"","","","","","image-keyboard-response","573","223521","0.0-3.0-0.139","","null","img_mproj/Mfalse/10.jpg","null","actual_stimuli_presentation_1","",""
"","","","","","html-keyboard-response","574","223823","0.0-3.0-1.139","","null","<div style=""font-size:60px;"">+</div>","null","fixation","",""
"","","","","","image-keyboard-response","575","224025","0.0-3.0-2.139","","null","img_mproj/Mfalse/9.jpg","null","actual_stimuli_presentation_2","",""
"","","","","","html-keyboard-response","576","224941","0.0-3.0-3.139","","914","<p> Press S if the two images were the same, Press D if the two images were different. </p>","d","response","d","DMP"
"","","","","","image-keyboard-response","577","225143","0.0-3.0-0.140","","null","img_mproj/false/11.jpg","null","actual_stimuli_presentation_1","",""
"","","","","","html-keyboard-response","578","225444","0.0-3.0-1.140","","null","<div style=""font-size:60px;"">+</div>","null","fixation","",""
"","","","","","image-keyboard-response","579","225647","0.0-3.0-2.140","","null","img_mproj/Mfalse/11.jpg","null","actual_stimuli_presentation_2","",""
"","","","","","html-keyboard-response","580","226804","0.0-3.0-3.140","","1157","<p> Press S if the two images were the same, Press D if the two images were different. </p>","s","response","s","SMP"
"","","","","","image-keyboard-response","581","227007","0.0-3.0-0.141","","null","img_mproj/false/14.jpg","null","actual_stimuli_presentation_1","",""
"","","","","","html-keyboard-response","582","227308","0.0-3.0-1.141","","null","<div style=""font-size:60px;"">+</div>","null","fixation","",""
"","","","","","image-keyboard-response","583","227511","0.0-3.0-2.141","","null","img_mproj/false/1.jpg","null","actual_stimuli_presentation_2","",""
"","","","","","html-keyboard-response","584","228471","0.0-3.0-3.141","","959","<p> Press S if the two images were the same, Press D if the two images were different. </p>","d","response","d","DNP"
"","","","","","image-keyboard-response","585","228673","0.0-3.0-0.142","","null","img_mproj/faces/4.jpg","null","actual_stimuli_presentation_1","",""
"","","","","","html-keyboard-response","586","228974","0.0-3.0-1.142","","null","<div style=""font-size:60px;"">+</div>","null","fixation","",""
"","","","","","image-keyboard-response","587","229178","0.0-3.0-2.142","","null","img_mproj/Mfaces/4.jpg","null","actual_stimuli_presentation_2","",""
"","","","","","html-keyboard-response","588","229597","0.0-3.0-3.142","","418","<p> Press S if the two images were the same, Press D if the two images were different. </p>","s","response","s","SMM"
"","","","","","image-keyboard-response","589","229799","0.0-3.0-0.143","","null","img_mproj/tools/14.jpg","null","actual_stimuli_presentation_1","",""
"","","","","","html-keyboard-response","590","230101","0.0-3.0-1.143","","null","<div style=""font-size:60px;"">+</div>","null","fixation","",""
"","","","","","image-keyboard-response","591","230304","0.0-3.0-2.143","","null","img_mproj/tools/1.jpg","null","actual_stimuli_presentation_2","",""
"","","","","","html-keyboard-response","592","231158","0.0-3.0-3.143","","854","<p> Press S if the two images were the same, Press D if the two images were different. </p>","d","response","d","DNT"
"","","","","","image-keyboard-response","593","231361","0.0-3.0-0.144","","null","img_mproj/false/13.jpg","null","actual_stimuli_presentation_1","",""
"","","","","","html-keyboard-response","594","231662","0.0-3.0-1.144","","null","<div style=""font-size:60px;"">+</div>","null","fixation","",""
"","","","","","image-keyboard-response","595","231866","0.0-3.0-2.144","","null","img_mproj/false/13.jpg","null","actual_stimuli_presentation_2","",""
"","","","","","html-keyboard-response","596","232759","0.0-3.0-3.144","","894","<p> Press S if the two images were the same, Press D if the two images were different. </p>","s","response","s","SNP"
"","","","","","image-keyboard-response","597","232961","0.0-3.0-0.145","","null","img_mproj/tools/6.jpg","null","actual_stimuli_presentation_1","",""
"","","","","","html-keyboard-response","598","233263","0.0-3.0-1.145","","null","<div style=""font-size:60px;"">+</div>","null","fixation","",""
"","","","","","image-keyboard-response","599","233465","0.0-3.0-2.145","","null","img_mproj/Mtools/6.jpg","null","actual_stimuli_presentation_2","",""
"","","","","","html-keyboard-response","600","234082","0.0-3.0-3.145","","617","<p> Press S if the two images were the same, Press D if the two images were different. </p>","s","response","s","SMT"
"","","","","","image-keyboard-response","601","234284","0.0-3.0-0.146","","null","img_mproj/false/3.jpg","null","actual_stimuli_presentation_1","",""
"","","","","","html-keyboard-response","602","234586","0.0-3.0-1.146","","null","<div style=""font-size:60px;"">+</div>","null","fixation","",""
"","","","","","image-keyboard-response","603","234789","0.0-3.0-2.146","","null","img_mproj/false/14.jpg","null","actual_stimuli_presentation_2","",""
"","","","","","html-keyboard-response","604","235738","0.0-3.0-3.146","","949","<p> Press S if the two images were the same, Press D if the two images were different. </p>","d","response","d","DNP"
"","","","","","image-keyboard-response","605","235940","0.0-3.0-0.147","","null","img_mproj/faces/3.jpg","null","actual_stimuli_presentation_1","",""
"","","","","","html-keyboard-response","606","236241","0.0-3.0-1.147","","null","<div style=""font-size:60px;"">+</div>","null","fixation","",""
"","","","","","image-keyboard-response","607","236445","0.0-3.0-2.147","","null","img_mproj/faces/14.jpg","null","actual_stimuli_presentation_2","",""
"","","","","","html-keyboard-response","608","237275","0.0-3.0-3.147","","830","<p> Press S if the two images were the same, Press D if the two images were different. </p>","d","response","d","DNM"
"","","","","","image-keyboard-response","609","237478","0.0-3.0-0.148","","null","img_mproj/jap/9.jpg","null","actual_stimuli_presentation_1","",""
"","","","","","html-keyboard-response","610","237781","0.0-3.0-1.148","","null","<div style=""font-size:60px;"">+</div>","null","fixation","",""
"","","","","","image-keyboard-response","611","237983","0.0-3.0-2.148","","null","img_mproj/Mjap/9.jpg","null","actual_stimuli_presentation_2","",""
"","","","","","html-keyboard-response","612","238970","0.0-3.0-3.148","","986","<p> Press S if the two images were the same, Press D if the two images were different. </p>","d","response","s","SMJ"
"","","","","","image-keyboard-response","613","239172","0.0-3.0-0.149","","null","img_mproj/Mfrench/7.jpg","null","actual_stimuli_presentation_1","",""
"","","","","","html-keyboard-response","614","239474","0.0-3.0-1.149","","null","<div style=""font-size:60px;"">+</div>","null","fixation","",""
